<?xml version="1.0" encoding="UTF-8"?>
<?xml-stylesheet type="text/xsl" href="define2-1.xsl"?>
<ODM xmlns="http://www.cdisc.org/ns/odm/v1.3" xmlns:def="http://www.cdisc.org/ns/def/v2.1" xmlns:xlink="http://www.w3.org/1999/xlink" ODMVersion="1.3.2" FileType="Snapshot" FileOID="RWDL.COMBINED.MH.DEFINE.001" CreationDateTime="2026-06-02T15:04:40" Originator="TCGA-BRCA + MIMIC-IV MH Pipeline" def:Context="Submission">
  <Study OID="STUDY.COMBINED.BRCA.MH">
    <GlobalVariables>
      <StudyName>Combined TCGA-BRCA + MIMIC-IV Breast Cancer MH Domain</StudyName>
      <StudyDescription>Medical History (MH) domain — combined 394 subjects (385 TCGA-BRCA + 9 MIMIC-IV). Lineage: rwd_lineage_combined_mh_celllevel.xml.</StudyDescription>
      <ProtocolName>RWDL-COMBINED-BRCA-001</ProtocolName>
    </GlobalVariables>
    <MetaDataVersion OID="MDV.COMBINED.MH.001" Name="Combined TCGA+MIMIC MH Domain Data Definitions v1" def:DefineVersion="2.1" Description="MH domain — 394 subjects (385 TCGA-BRCA, 9 MIMIC-IV), 19 variables. MHSTDTC/MHDTC use DataType=incompleteDatetime due to mixed precision." def:CommentOID="COM.MDV.MIXEDPRECISION">
      <def:Standards>
        <def:Standard OID="STD.SDTMIG-3.3" Name="SDTMIG" Type="IG" Version="3.3" Status="Final" />
        <def:Standard OID="STD.CT.SDTM.2023" Name="CDISC/NCI" Type="CT" Version="2023-06-30" Status="Final" PublishingSet="SDTM" />
        <def:Standard OID="STD.RWDL-1.0" Name="RWDL" Type="IG" Version="1.0" Status="Draft" />
      </def:Standards>
      <def:CommentDef OID="COM.MDV.MIXEDPRECISION">
        <Description>
          <TranslatedText xml:lang="en">MHSTDTC and MHDTC contain values of mixed ISO 8601 precision: TCGA-BRCA=year-only for MHSTDTC, date-only for MHDTC; MIMIC-IV=full datetime for both. DataType=incompleteDatetime used for both.</TranslatedText>
        </Description>
      </def:CommentDef>
      <def:CommentDef OID="COM.MHCAT.COMBINED">
        <Description>
          <TranslatedText xml:lang="en">MHCAT values differ by study: TCGA-BRCA='TCGA-PATIENT'; MIMICIVBC='MALIGNANCY HISTORY'. Both are sponsor-defined non-CT values.</TranslatedText>
        </Description>
      </def:CommentDef>
      <def:SupplementalDoc>
        <def:DocumentRef leafID="LF.RWDLINEAGE.COMBINED" />
        <def:DocumentRef leafID="LF.SPECGAPS" />
      </def:SupplementalDoc>
      <ItemGroupDef OID="IG.MH.COMBINED" Domain="MH" Name="MH" Repeating="Yes" IsReferenceData="No" SASDatasetName="MH" Purpose="Tabulation" def:Structure="One record per medical history event per subject" def:ArchiveLocationID="LF.MH.COMBINED" def:StandardOID="STD.SDTMIG-3.3" def:CommentOID="COM.MDV.MIXEDPRECISION">
        <Description>
          <TranslatedText xml:lang="en">Medical History — Combined TCGA-BRCA and MIMIC-IV</TranslatedText>
        </Description>
        <ItemRef ItemOID="IT.MH.COMBINED.STUDYID" OrderNumber="1" Mandatory="Yes" KeySequence="1" />
        <ItemRef ItemOID="IT.MH.COMBINED.DOMAIN" OrderNumber="2" Mandatory="Yes" />
        <ItemRef ItemOID="IT.MH.COMBINED.USUBJID" OrderNumber="3" Mandatory="Yes" KeySequence="2" MethodOID="MT.MIMIC.DIRECT" />
        <ItemRef ItemOID="IT.MH.COMBINED.MHSEQ" OrderNumber="4" Mandatory="Yes" KeySequence="3" MethodOID="MT.MIMIC.DIRECT" />
        <ItemRef ItemOID="IT.MH.COMBINED.MHTERM" OrderNumber="5" Mandatory="Yes" MethodOID="MT.COMBINED.MHTERM" />
        <ItemRef ItemOID="IT.MH.COMBINED.MHDECOD" OrderNumber="6" Mandatory="No" MethodOID="MT.COMBINED.MHDECOD" />
        <ItemRef ItemOID="IT.MH.COMBINED.MHCAT" OrderNumber="7" Mandatory="No" MethodOID="MT.MIMIC.DIRECT" />
        <ItemRef ItemOID="IT.MH.COMBINED.MHEVDTYP" OrderNumber="8" Mandatory="No" MethodOID="MT.MIMIC.DIRECT" />
        <ItemRef ItemOID="IT.MH.COMBINED.MHPRESP" OrderNumber="9" Mandatory="No" />
        <ItemRef ItemOID="IT.MH.COMBINED.MHOCCUR" OrderNumber="10" Mandatory="No" MethodOID="MT.MIMIC.DIRECT" />
        <ItemRef ItemOID="IT.MH.COMBINED.MHSTAT" OrderNumber="11" Mandatory="No" MethodOID="MT.MIMIC.DIRECT" />
        <ItemRef ItemOID="IT.MH.COMBINED.MHSTDTC" OrderNumber="12" Mandatory="No" MethodOID="MT.COMBINED.MHSTDTC" />
        <ItemRef ItemOID="IT.MH.COMBINED.MHDTC" OrderNumber="13" Mandatory="No" MethodOID="MT.COMBINED.MHDTC" />
        <ItemRef ItemOID="IT.MH.COMBINED.MHSTDY" OrderNumber="14" Mandatory="No" MethodOID="MT.MHSTDY.DAYSPLUS1" />
        <ItemRef ItemOID="IT.MH.COMBINED.MHDY" OrderNumber="15" Mandatory="No" MethodOID="MT.MIMIC.DIRECT" />
        <ItemRef ItemOID="IT.MH.COMBINED.MHSTRTPT" OrderNumber="16" Mandatory="No" MethodOID="MT.MHSTRTPT.CONDITIONAL" />
        <ItemRef ItemOID="IT.MH.COMBINED.MHSTTPT" OrderNumber="17" Mandatory="No" MethodOID="MT.MHSTRTPT.CONDITIONAL" />
        <ItemRef ItemOID="IT.MH.COMBINED.VISITNUM" OrderNumber="18" Mandatory="No" MethodOID="MT.MIMIC.DIRECT" />
        <ItemRef ItemOID="IT.MH.COMBINED.VISIT" OrderNumber="19" Mandatory="No" MethodOID="MT.MIMIC.DIRECT" />
        <def:Class Name="EVENTS" />
        <def:leaf ID="LF.MH.COMBINED" xlink:href="MH.txt">
          <def:title>MH.txt</def:title>
        </def:leaf>
      </ItemGroupDef>
      <ItemDef OID="IT.MH.COMBINED.STUDYID" Name="STUDYID" DataType="text" SASFieldName="STUDYID" Length="9">
        <Description>
          <TranslatedText xml:lang="en">Study Identifier</TranslatedText>
        </Description>
        <def:Origin Type="Protocol" Source="Sponsor" />
      </ItemDef>
      <ItemDef OID="IT.MH.COMBINED.DOMAIN" Name="DOMAIN" DataType="text" SASFieldName="DOMAIN" Length="2">
        <Description>
          <TranslatedText xml:lang="en">Domain Abbreviation</TranslatedText>
        </Description>
        <def:Origin Type="Protocol" Source="Sponsor" />
      </ItemDef>
      <ItemDef OID="IT.MH.COMBINED.USUBJID" Name="USUBJID" DataType="text" SASFieldName="USUBJID" Length="18">
        <Description>
          <TranslatedText xml:lang="en">Unique Subject Identifier</TranslatedText>
        </Description>
        <def:Origin Type="Assigned" Source="Sponsor">
          <Description>
            <TranslatedText xml:lang="en">See MethodDef MT.MIMIC.DIRECT.</TranslatedText>
          </Description>
        </def:Origin>
      </ItemDef>
      <ItemDef OID="IT.MH.COMBINED.MHSEQ" Name="MHSEQ" DataType="integer" SASFieldName="MHSEQ" Length="2">
        <Description>
          <TranslatedText xml:lang="en">Sequence Number</TranslatedText>
        </Description>
        <def:Origin Type="Derived" Source="Sponsor">
          <Description>
            <TranslatedText xml:lang="en">See MethodDef MT.MIMIC.DIRECT.</TranslatedText>
          </Description>
        </def:Origin>
      </ItemDef>
      <ItemDef OID="IT.MH.COMBINED.MHTERM" Name="MHTERM" DataType="text" SASFieldName="MHTERM" Length="200">
        <Description>
          <TranslatedText xml:lang="en">Verbatim History Term</TranslatedText>
        </Description>
        <def:Origin Type="Collected" Source="Investigator">
          <Description>
            <TranslatedText xml:lang="en">See MethodDef MT.COMBINED.MHTERM.</TranslatedText>
          </Description>
        </def:Origin>
      </ItemDef>
      <ItemDef OID="IT.MH.COMBINED.MHDECOD" Name="MHDECOD" DataType="text" SASFieldName="MHDECOD" Length="200">
        <Description>
          <TranslatedText xml:lang="en">Dictionary-Derived Term</TranslatedText>
        </Description>
        <def:Origin Type="Derived" Source="Sponsor">
          <Description>
            <TranslatedText xml:lang="en">See MethodDef MT.COMBINED.MHDECOD.</TranslatedText>
          </Description>
        </def:Origin>
      </ItemDef>
      <ItemDef OID="IT.MH.COMBINED.MHCAT" Name="MHCAT" DataType="text" SASFieldName="MHCAT" Length="20" def:CommentOID="COM.MHCAT.COMBINED">
        <Description>
          <TranslatedText xml:lang="en">Category for History</TranslatedText>
        </Description>
        <def:Origin Type="Assigned" Source="Sponsor">
          <Description>
            <TranslatedText xml:lang="en">See MethodDef MT.MIMIC.DIRECT.</TranslatedText>
          </Description>
        </def:Origin>
      </ItemDef>
      <ItemDef OID="IT.MH.COMBINED.MHEVDTYP" Name="MHEVDTYP" DataType="text" SASFieldName="MHEVDTYP" Length="30">
        <Description>
          <TranslatedText xml:lang="en">Medical History Event Evidence Type</TranslatedText>
        </Description>
        <def:Origin Type="Assigned" Source="Sponsor">
          <Description>
            <TranslatedText xml:lang="en">See MethodDef MT.MIMIC.DIRECT.</TranslatedText>
          </Description>
        </def:Origin>
      </ItemDef>
      <ItemDef OID="IT.MH.COMBINED.MHPRESP" Name="MHPRESP" DataType="text" SASFieldName="MHPRESP" Length="1">
        <Description>
          <TranslatedText xml:lang="en">Medical History Event Pre-Specified</TranslatedText>
        </Description>
        <CodeListRef CodeListOID="CL.NY" />
        <def:Origin Type="Protocol" Source="Sponsor" />
      </ItemDef>
      <ItemDef OID="IT.MH.COMBINED.MHOCCUR" Name="MHOCCUR" DataType="text" SASFieldName="MHOCCUR" Length="1">
        <Description>
          <TranslatedText xml:lang="en">Medical History Event Occurrence</TranslatedText>
        </Description>
        <CodeListRef CodeListOID="CL.NY" />
        <def:Origin Type="Collected" Source="Investigator">
          <Description>
            <TranslatedText xml:lang="en">See MethodDef MT.MIMIC.DIRECT.</TranslatedText>
          </Description>
        </def:Origin>
      </ItemDef>
      <ItemDef OID="IT.MH.COMBINED.MHSTAT" Name="MHSTAT" DataType="text" SASFieldName="MHSTAT" Length="20">
        <Description>
          <TranslatedText xml:lang="en">Completion Status</TranslatedText>
        </Description>
        <def:Origin Type="Collected" Source="Investigator">
          <Description>
            <TranslatedText xml:lang="en">See MethodDef MT.MIMIC.DIRECT.</TranslatedText>
          </Description>
        </def:Origin>
      </ItemDef>
      <ItemDef OID="IT.MH.COMBINED.MHSTDTC" Name="MHSTDTC" DataType="incompleteDatetime" SASFieldName="MHSTDTC">
        <Description>
          <TranslatedText xml:lang="en">Start Date/Time of Medical History</TranslatedText>
        </Description>
        <def:Origin Type="Collected" Source="Investigator">
          <Description>
            <TranslatedText xml:lang="en">See MethodDef MT.COMBINED.MHSTDTC.</TranslatedText>
          </Description>
        </def:Origin>
      </ItemDef>
      <ItemDef OID="IT.MH.COMBINED.MHDTC" Name="MHDTC" DataType="incompleteDatetime" SASFieldName="MHDTC">
        <Description>
          <TranslatedText xml:lang="en">Date/Time of Medical History</TranslatedText>
        </Description>
        <def:Origin Type="Collected" Source="Investigator">
          <Description>
            <TranslatedText xml:lang="en">See MethodDef MT.COMBINED.MHDTC.</TranslatedText>
          </Description>
        </def:Origin>
      </ItemDef>
      <ItemDef OID="IT.MH.COMBINED.MHSTDY" Name="MHSTDY" DataType="integer" SASFieldName="MHSTDY" Length="1">
        <Description>
          <TranslatedText xml:lang="en">Study Day of Start of Medical History</TranslatedText>
        </Description>
        <def:Origin Type="Derived" Source="Sponsor">
          <Description>
            <TranslatedText xml:lang="en">See MethodDef MT.MHSTDY.DAYSPLUS1.</TranslatedText>
          </Description>
        </def:Origin>
      </ItemDef>
      <ItemDef OID="IT.MH.COMBINED.MHDY" Name="MHDY" DataType="integer" SASFieldName="MHDY" Length="1">
        <Description>
          <TranslatedText xml:lang="en">Study Day of Medical History Collection</TranslatedText>
        </Description>
        <def:Origin Type="Collected" Source="Investigator">
          <Description>
            <TranslatedText xml:lang="en">See MethodDef MT.MIMIC.DIRECT.</TranslatedText>
          </Description>
        </def:Origin>
      </ItemDef>
      <ItemDef OID="IT.MH.COMBINED.MHSTRTPT" Name="MHSTRTPT" DataType="text" SASFieldName="MHSTRTPT" Length="10">
        <Description>
          <TranslatedText xml:lang="en">Start Relative to Reference Time Point</TranslatedText>
        </Description>
        <CodeListRef CodeListOID="CL.STENRF" />
        <def:Origin Type="Derived" Source="Sponsor">
          <Description>
            <TranslatedText xml:lang="en">See MethodDef MT.MHSTRTPT.CONDITIONAL.</TranslatedText>
          </Description>
        </def:Origin>
      </ItemDef>
      <ItemDef OID="IT.MH.COMBINED.MHSTTPT" Name="MHSTTPT" DataType="text" SASFieldName="MHSTTPT" Length="20">
        <Description>
          <TranslatedText xml:lang="en">Start Reference Time Point</TranslatedText>
        </Description>
        <def:Origin Type="Derived" Source="Sponsor">
          <Description>
            <TranslatedText xml:lang="en">See MethodDef MT.MHSTRTPT.CONDITIONAL.</TranslatedText>
          </Description>
        </def:Origin>
      </ItemDef>
      <ItemDef OID="IT.MH.COMBINED.VISITNUM" Name="VISITNUM" DataType="integer" SASFieldName="VISITNUM" Length="2">
        <Description>
          <TranslatedText xml:lang="en">Visit Number</TranslatedText>
        </Description>
        <def:Origin Type="Protocol" Source="Sponsor">
          <Description>
            <TranslatedText xml:lang="en">See MethodDef MT.MIMIC.DIRECT.</TranslatedText>
          </Description>
        </def:Origin>
      </ItemDef>
      <ItemDef OID="IT.MH.COMBINED.VISIT" Name="VISIT" DataType="text" SASFieldName="VISIT" Length="25">
        <Description>
          <TranslatedText xml:lang="en">Visit Name</TranslatedText>
        </Description>
        <def:Origin Type="Protocol" Source="Sponsor">
          <Description>
            <TranslatedText xml:lang="en">See MethodDef MT.MIMIC.DIRECT.</TranslatedText>
          </Description>
        </def:Origin>
      </ItemDef>
      <MethodDef OID="MT.COMBINED.MHTERM" Name="Algorithm to derive MHTERM (combined TCGA+MIMIC)" Type="Computation">
        <Description>
          <TranslatedText xml:lang="en">SOURCE DEPENDENT BY STUDYID. TCGA-BRCA: if histological_type=='Other  specify', MHTERM='Other specify - '||histologic_diagnosis_other. If histological_type=='Mixed Histology (please specify)', MHTERM='Mixed Histology (please specify) - '||histologic_diagnosis_other. Otherwise MHTERM=histological_type verbatim. 21 subjects trigger concat. MIMICIVBC: direct copy of MHTERM from MH.xlsx (ICD code string, e.g. 'C50919').</TranslatedText>
        </Description>
        <FormalExpression Context="Python 3.x pandas">if STUDYID=='TCGA-BRCA':
    if histological_type=='Other  specify':
        MHTERM='Other specify - '+histologic_diagnosis_other
    elif histological_type=='Mixed Histology (please specify)':
        MHTERM='Mixed Histology (please specify) - '+histologic_diagnosis_other
    else: MHTERM=histological_type
elif STUDYID=='MIMICIVBC': MHTERM=MH_xlsx.MHTERM</FormalExpression>
      </MethodDef>
      <MethodDef OID="MT.COMBINED.MHDECOD" Name="Algorithm to derive MHDECOD (combined TCGA+MIMIC)" Type="Computation">
        <Description>
          <TranslatedText xml:lang="en">SOURCE DEPENDENT BY STUDYID. TCGA-BRCA: map icd_o_3_histology code to text via icd-o-3_code_to_text.xlsx (13 codes, full coverage). 4 subjects have MHTERM/MHDECOD mismatch (TCGA-BH-A0HL, TCGA-EW-A1OW, TCGA-EW-A1OX, TCGA-EW-A1PE). MIMICIVBC: direct copy of MHDECOD from MH.xlsx (ICD description text).</TranslatedText>
        </Description>
        <FormalExpression Context="Python 3.x pandas">if STUDYID=='TCGA-BRCA':
    lookup=pd.read_excel('icd-o-3_code_to_text.xlsx').set_index('icd_o_3_code')['icd_o_3_text']
    MHDECOD=icd_o_3_histology.map(lookup)
elif STUDYID=='MIMICIVBC': MHDECOD=MH_xlsx.MHDECOD</FormalExpression>
      </MethodDef>
      <MethodDef OID="MT.COMBINED.MHSTDTC" Name="Algorithm to derive MHSTDTC (combined TCGA+MIMIC)" Type="Computation">
        <Description>
          <TranslatedText xml:lang="en">SOURCE DEPENDENT BY STUDYID. TCGA-BRCA: source=initial_pathologic_dx_year. If matches ^\d{4}$, assign as-is (year-only ISO8601). If sentinel '[Not Available]', MHSTDTC is blank (2 subjects). MIMICIVBC: direct copy MHSTDTC from MH.xlsx (full ISO8601 datetime). CONFORMANCE NOTE: mixed precision (year-only vs datetime) — DataType=incompleteDatetime.</TranslatedText>
        </Description>
        <FormalExpression Context="Python 3.x pandas">if STUDYID=='TCGA-BRCA':
    MHSTDTC=initial_pathologic_dx_year.where(year.str.match(r'^\d{4}$'),'')
elif STUDYID=='MIMICIVBC': MHSTDTC=MH_xlsx.MHSTDTC</FormalExpression>
      </MethodDef>
      <MethodDef OID="MT.COMBINED.MHDTC" Name="Algorithm to derive MHDTC (combined TCGA+MIMIC)" Type="Computation">
        <Description>
          <TranslatedText xml:lang="en">SOURCE DEPENDENT BY STUDYID. TCGA-BRCA: source=form_completion_date (YYYY-M-D). Reformatted to zero-padded YYYY-MM-DD via pd.to_datetime. All 385 populated. MIMICIVBC: direct copy MHDTC from MH.xlsx (full ISO8601 datetime). CONFORMANCE NOTE: mixed precision — DataType=incompleteDatetime.</TranslatedText>
        </Description>
        <FormalExpression Context="Python 3.x pandas">if STUDYID=='TCGA-BRCA':
    MHDTC=pd.to_datetime(form_completion_date,errors='coerce').dt.strftime('%Y-%m-%d').fillna('')
elif STUDYID=='MIMICIVBC': MHDTC=MH_xlsx.MHDTC</FormalExpression>
      </MethodDef>
      <MethodDef OID="MT.MHSTDY.DAYSPLUS1" Name="Algorithm to derive MHSTDY (TCGA-BRCA only)" Type="Computation">
        <Description>
          <TranslatedText xml:lang="en">TCGA-BRCA ONLY. Blank for MIMICIVBC rows. MHSTDY=days_to_initial_pathologic_diagnosis+1. Source=0 for all 385 cohort subjects; MHSTDY=1 for all.</TranslatedText>
        </Description>
        <FormalExpression Context="Python 3.x pandas">if STUDYID=='TCGA-BRCA':
    MHSTDY=pd.to_numeric(days_to_initial_pathologic_diagnosis,errors='coerce')+1
elif STUDYID=='MIMICIVBC': MHSTDY=''</FormalExpression>
      </MethodDef>
      <MethodDef OID="MT.MHSTRTPT.CONDITIONAL" Name="Algorithm to derive MHSTRTPT and MHSTTPT (TCGA-BRCA only)" Type="Computation">
        <Description>
          <TranslatedText xml:lang="en">TCGA-BRCA ONLY. Both blank for MIMICIVBC rows. Populated iff initial_pathologic_dx_year=='[Not Available]' (exact match). MHSTRTPT='BEFORE', MHSTTPT='SCREENING'. 2 subjects triggered: TCGA-HN-A2NL, TCGA-HN-A2OB.</TranslatedText>
        </Description>
        <FormalExpression Context="Python 3.x pandas">if STUDYID=='TCGA-BRCA':
    trigger=(initial_pathologic_dx_year=='[Not Available]')
    MHSTRTPT=trigger.map({True:'BEFORE',False:''})
    MHSTTPT=trigger.map({True:'SCREENING',False:''})
elif STUDYID=='MIMICIVBC': MHSTRTPT=MHSTTPT=''</FormalExpression>
      </MethodDef>
      <MethodDef OID="MT.MIMIC.DIRECT" Name="Algorithm for MIMIC-IV direct-copy variables" Type="Computation">
        <Description>
          <TranslatedText xml:lang="en">MIMICIVBC ONLY. Variables copied directly from MH.xlsx with no transformation: USUBJID, MHSEQ, MHCAT, MHOCCUR, MHSTAT, MHDY, VISITNUM, VISIT, MHEVDTYP. SPEC GAP: MH.xlsx is itself a pre-mapped SDTM output, not raw RWD. True lineage requires tracing back to MIMIC-IV PostgreSQL (tables: hosp.diagnoses_icd, hosp.admissions, hosp.patients).</TranslatedText>
        </Description>
        <FormalExpression Context="Python 3.x pandas concat">if STUDYID=='MIMICIVBC': &lt;variable&gt;=MH_xlsx.&lt;variable&gt;  # direct copy</FormalExpression>
      </MethodDef>
      <CodeList OID="CL.MHCAT.COMBINED" Name="Medical History Category (Combined)" DataType="text" def:IsNonStandard="Yes">
        <EnumeratedItem CodedValue="TCGA-PATIENT" />
        <EnumeratedItem CodedValue="MALIGNANCY HISTORY" />
      </CodeList>
      <CodeList OID="CL.NY" Name="No Yes Response" DataType="text" def:StandardOID="STD.CT.SDTM.2023">
        <EnumeratedItem CodedValue="Y">
          <Alias Context="nci:ExtCodeID" Name="C66742" />
        </EnumeratedItem>
        <EnumeratedItem CodedValue="N">
          <Alias Context="nci:ExtCodeID" Name="C49487" />
        </EnumeratedItem>
      </CodeList>
      <CodeList OID="CL.STENRF" Name="Start/End Relative to Reference Time Point" DataType="text" def:StandardOID="STD.CT.SDTM.2023">
        <EnumeratedItem CodedValue="BEFORE">
          <Alias Context="nci:ExtCodeID" Name="C25629" />
        </EnumeratedItem>
        <EnumeratedItem CodedValue="AFTER">
          <Alias Context="nci:ExtCodeID" Name="C25630" />
        </EnumeratedItem>
        <EnumeratedItem CodedValue="COINCIDENT">
          <Alias Context="nci:ExtCodeID" Name="C25551" />
        </EnumeratedItem>
        <EnumeratedItem CodedValue="ONGOING">
          <Alias Context="nci:ExtCodeID" Name="C25669" />
        </EnumeratedItem>
        <EnumeratedItem CodedValue="UNKNOWN">
          <Alias Context="nci:ExtCodeID" Name="C17998" />
        </EnumeratedItem>
      </CodeList>
      <def:leaf ID="LF.MH.COMBINED" xlink:href="MH.txt">
        <def:title>Combined TCGA+MIMIC MH Dataset</def:title>
      </def:leaf>
      <def:leaf ID="LF.RWDLINEAGE.COMBINED" xlink:href="rwd_lineage_combined_mh_celllevel.xml">
        <def:title>RWD Lineage — Combined (cell-level)</def:title>
      </def:leaf>
      <def:leaf ID="LF.SPECGAPS" xlink:href="rwdl_spec_gaps_combined.txt">
        <def:title>RWDL Specification Gaps — Combined</def:title>
      </def:leaf>
    </MetaDataVersion>
  </Study>
</ODM>