<?xml version="1.0" encoding="UTF-8"?>
<rwdl:lineage xmlns:rwdl="http://www.cdisc.org/ns/rwdl/v1.0" CreationDateTime="2026-05-26T15:15:17" FileOID="RWDL.COMBINED.MH.CELLLEVEL.v2">
  <rwdl:sourceMetadata>
    <rwdl:source OID="SRC.TCGA.1" name="TCGA-BRCA BCR Biotab Legacy Portal" description="nationwidechildrens_org_clinical_patient_brca.txt — 385 patients." />
    <rwdl:source OID="SRC.MIMIC.1" name="MIMIC-IV Breast Cancer MH Pre-Mapped Output" description="MH.xlsx — 9 MIMIC-IV subjects. SPEC GAP: source is already pre-mapped SDTM, not raw RWD. True lineage to MIMIC-IV PostgreSQL database not represented." />
  </rwdl:sourceMetadata>
  <rwdl:OmittedColumns reason="Hardcoded, derived-only, or not-applicable columns have no RWD source cell.">
    <rwdl:Column name="DOMAIN" note="TCGA: Hardcoded 'MH'. SPEC GAP: no source cell.  |  MIMIC: Hardcoded 'MH'. SPEC GAP: no source cell." />
    <rwdl:Column name="MHCAT" note="TCGA: Hardcoded 'TCGA-PATIENT'. SPEC GAP: no source cell.  |  MIMIC: Direct copy 'MALIGNANCY HISTORY' from MIMIC source." />
    <rwdl:Column name="MHDY" note="TCGA: Always blank for TCGA.  |  MIMIC: Direct copy from MIMIC source (all null in source)." />
    <rwdl:Column name="MHEVDTYP" note="TCGA: Hardcoded 'INITIAL PATHOLOGICAL DIAGNOSIS'. SPEC GAP.  |  MIMIC: Direct copy from MIMIC source (blank for 8 of 9 rows)." />
    <rwdl:Column name="MHOCCUR" note="TCGA: Hardcoded 'Y'. SPEC GAP: no source cell.  |  MIMIC: Direct copy from MIMIC source." />
    <rwdl:Column name="MHPRESP" note="TCGA: Hardcoded 'Y'. SPEC GAP: no source cell.  |  MIMIC: Blank for MIMIC — not recorded in source." />
    <rwdl:Column name="MHSEQ" note="TCGA: Computed sequence number. SPEC GAP: no single source cell.  |  MIMIC: Direct copy from MIMIC MH source file." />
    <rwdl:Column name="MHSTAT" note="TCGA: Always blank for TCGA.  |  MIMIC: Direct copy from MIMIC source (all null in source)." />
    <rwdl:Column name="MHSTDY" note="TCGA: MHSTDY = source + 1.  |  MIMIC: Blank for MIMIC — study day not derived." />
    <rwdl:Column name="MHSTRTPT" note="TCGA: Populated 'BEFORE' iff source == '[Not Available]'.  |  MIMIC: Blank for MIMIC — conditional not applicable." />
    <rwdl:Column name="MHSTTPT" note="TCGA: Populated 'SCREENING' iff source == '[Not Available]'.  |  MIMIC: Blank for MIMIC — conditional not applicable." />
    <rwdl:Column name="STUDYID" note="TCGA: Hardcoded 'TCGA-BRCA'. SPEC GAP: no source cell.  |  MIMIC: Hardcoded 'MIMICIVBC'. SPEC GAP: no source cell." />
    <rwdl:Column name="VISIT" note="TCGA: Hardcoded 'VISIT 1'. SPEC GAP: no source cell.  |  MIMIC: Direct copy from MIMIC source." />
    <rwdl:Column name="VISITNUM" note="TCGA: Hardcoded 1. SPEC GAP: no source cell.  |  MIMIC: Direct copy from MIMIC source." />
  </rwdl:OmittedColumns>
  <rwdl:MapID uuid="f244fec4-b67b-5cc7-a76d-df2f1bda3f78">
    <rwdl:Transformation type="Direct Map">Direct copy of bcr_patient_barcode.</rwdl:Transformation>
    <rwdl:Source>
      <rwdl:Coordinate storage="FILESYSTEM" structure="TABULAR">
        <rwdl:URI>./nationwidechildrens_org_clinical_patient_brca.txt</rwdl:URI>
        <rwdl:RowKey column="bcr_patient_barcode">TCGA-3C-AAAU</rwdl:RowKey>
        <rwdl:ColumnName>bcr_patient_barcode</rwdl:ColumnName>
        <rwdl:SourceValue />
        <rwdl:Format>TSV</rwdl:Format>
      </rwdl:Coordinate>
    </rwdl:Source>
    <rwdl:Target>
      <rwdl:Coordinate storage="FILESYSTEM" structure="TABULAR">
        <rwdl:URI>./MH.txt</rwdl:URI>
        <rwdl:RowIndex>2</rwdl:RowIndex>
        <rwdl:ColumnName>USUBJID</rwdl:ColumnName>
        <rwdl:TargetValue>TCGA-3C-AAAU</rwdl:TargetValue>
        <rwdl:Format>TSV</rwdl:Format>
      </rwdl:Coordinate>
    </rwdl:Target>
  </rwdl:MapID>
  <rwdl:MapID uuid="7756e7ea-408d-5a4b-8182-3399fd427971" MethodDefOID="MT.COMBINED.MHTERM">
    <rwdl:Transformation type="Conditional Concat">Conditional concat. See MT.COMBINED.MHTERM.</rwdl:Transformation>
    <rwdl:Source>
      <rwdl:Coordinate storage="FILESYSTEM" structure="TABULAR">
        <rwdl:URI>./nationwidechildrens_org_clinical_patient_brca.txt</rwdl:URI>
        <rwdl:RowKey column="bcr_patient_barcode">TCGA-3C-AAAU</rwdl:RowKey>
        <rwdl:ColumnName>histological_type</rwdl:ColumnName>
        <rwdl:SourceValue>Infiltrating Lobular Carcinoma</rwdl:SourceValue>
        <rwdl:Format>TSV</rwdl:Format>
      </rwdl:Coordinate>
    </rwdl:Source>
    <rwdl:Target>
      <rwdl:Coordinate storage="FILESYSTEM" structure="TABULAR">
        <rwdl:URI>./MH.txt</rwdl:URI>
        <rwdl:RowIndex>2</rwdl:RowIndex>
        <rwdl:ColumnName>MHTERM</rwdl:ColumnName>
        <rwdl:TargetValue>Infiltrating Lobular Carcinoma</rwdl:TargetValue>
        <rwdl:Format>TSV</rwdl:Format>
      </rwdl:Coordinate>
    </rwdl:Target>
  </rwdl:MapID>
  <rwdl:MapID uuid="30c6d312-fa73-5b81-af85-d2e4a1ede82e" MethodDefOID="MT.COMBINED.MHDECOD">
    <rwdl:Transformation type="Lookup">ICD-O-3 code to text via lookup. See MT.COMBINED.MHDECOD.</rwdl:Transformation>
    <rwdl:Source>
      <rwdl:Coordinate storage="FILESYSTEM" structure="TABULAR">
        <rwdl:URI>./nationwidechildrens_org_clinical_patient_brca.txt</rwdl:URI>
        <rwdl:RowKey column="bcr_patient_barcode">TCGA-3C-AAAU</rwdl:RowKey>
        <rwdl:ColumnName>icd_o_3_histology</rwdl:ColumnName>
        <rwdl:SourceValue>8520/3</rwdl:SourceValue>
        <rwdl:Format>TSV</rwdl:Format>
      </rwdl:Coordinate>
    </rwdl:Source>
    <rwdl:Target>
      <rwdl:Coordinate storage="FILESYSTEM" structure="TABULAR">
        <rwdl:URI>./MH.txt</rwdl:URI>
        <rwdl:RowIndex>2</rwdl:RowIndex>
        <rwdl:ColumnName>MHDECOD</rwdl:ColumnName>
        <rwdl:TargetValue>Lobular carcinoma, NOS</rwdl:TargetValue>
        <rwdl:Format>TSV</rwdl:Format>
      </rwdl:Coordinate>
    </rwdl:Target>
  </rwdl:MapID>
  <rwdl:MapID uuid="fd46ac2b-c330-5804-a3b4-d5f6593d7606" MethodDefOID="MT.COMBINED.MHSTDTC">
    <rwdl:Transformation type="ISO8601 Year or Blank">Year-only ISO8601; blank if '[Not Available]'.</rwdl:Transformation>
    <rwdl:Source>
      <rwdl:Coordinate storage="FILESYSTEM" structure="TABULAR">
        <rwdl:URI>./nationwidechildrens_org_clinical_patient_brca.txt</rwdl:URI>
        <rwdl:RowKey column="bcr_patient_barcode">TCGA-3C-AAAU</rwdl:RowKey>
        <rwdl:ColumnName>initial_pathologic_dx_year</rwdl:ColumnName>
        <rwdl:SourceValue>2004</rwdl:SourceValue>
        <rwdl:Format>TSV</rwdl:Format>
      </rwdl:Coordinate>
    </rwdl:Source>
    <rwdl:Target>
      <rwdl:Coordinate storage="FILESYSTEM" structure="TABULAR">
        <rwdl:URI>./MH.txt</rwdl:URI>
        <rwdl:RowIndex>2</rwdl:RowIndex>
        <rwdl:ColumnName>MHSTDTC</rwdl:ColumnName>
        <rwdl:TargetValue>2004</rwdl:TargetValue>
        <rwdl:Format>TSV</rwdl:Format>
      </rwdl:Coordinate>
    </rwdl:Target>
  </rwdl:MapID>
  <rwdl:MapID uuid="90f51245-14d6-5e44-bf7d-dc37ea234df6" MethodDefOID="MT.COMBINED.MHDTC">
    <rwdl:Transformation type="ISO8601 Conversion">YYYY-M-D to zero-padded YYYY-MM-DD.</rwdl:Transformation>
    <rwdl:Source>
      <rwdl:Coordinate storage="FILESYSTEM" structure="TABULAR">
        <rwdl:URI>./nationwidechildrens_org_clinical_patient_brca.txt</rwdl:URI>
        <rwdl:RowKey column="bcr_patient_barcode">TCGA-3C-AAAU</rwdl:RowKey>
        <rwdl:ColumnName>form_completion_date</rwdl:ColumnName>
        <rwdl:SourceValue>2014-1-13</rwdl:SourceValue>
        <rwdl:Format>TSV</rwdl:Format>
      </rwdl:Coordinate>
    </rwdl:Source>
    <rwdl:Target>
      <rwdl:Coordinate storage="FILESYSTEM" structure="TABULAR">
        <rwdl:URI>./MH.txt</rwdl:URI>
        <rwdl:RowIndex>2</rwdl:RowIndex>
        <rwdl:ColumnName>MHDTC</rwdl:ColumnName>
        <rwdl:TargetValue>2014-01-13</rwdl:TargetValue>
        <rwdl:Format>TSV</rwdl:Format>
      </rwdl:Coordinate>
    </rwdl:Target>
  </rwdl:MapID>
  <rwdl:MapID uuid="4657c65d-6367-552a-a4de-f698e47911a5" MethodDefOID="MT.MHSTDY.DAYSPLUS1">
    <rwdl:Transformation type="Derivation">MHSTDY = source + 1.</rwdl:Transformation>
    <rwdl:Source>
      <rwdl:Coordinate storage="FILESYSTEM" structure="TABULAR">
        <rwdl:URI>./nationwidechildrens_org_clinical_patient_brca.txt</rwdl:URI>
        <rwdl:RowKey column="bcr_patient_barcode">TCGA-3C-AAAU</rwdl:RowKey>
        <rwdl:ColumnName>days_to_initial_pathologic_diagnosis</rwdl:ColumnName>
        <rwdl:SourceValue>0</rwdl:SourceValue>
        <rwdl:Format>TSV</rwdl:Format>
      </rwdl:Coordinate>
    </rwdl:Source>
    <rwdl:Target>
      <rwdl:Coordinate storage="FILESYSTEM" structure="TABULAR">
        <rwdl:URI>./MH.txt</rwdl:URI>
        <rwdl:RowIndex>2</rwdl:RowIndex>
        <rwdl:ColumnName>MHSTDY</rwdl:ColumnName>
        <rwdl:TargetValue>1</rwdl:TargetValue>
        <rwdl:Format>TSV</rwdl:Format>
      </rwdl:Coordinate>
    </rwdl:Target>
  </rwdl:MapID>
  <rwdl:MapID uuid="30b1f287-ff61-5d51-b0c2-31e4ce9496d3" MethodDefOID="MT.MHSTRTPT.CONDITIONAL">
    <rwdl:Transformation type="Conditional Assign">Populated 'BEFORE' iff source == '[Not Available]'. [Source '2004' — not triggered, target blank.]</rwdl:Transformation>
    <rwdl:Source>
      <rwdl:Coordinate storage="FILESYSTEM" structure="TABULAR">
        <rwdl:URI>./nationwidechildrens_org_clinical_patient_brca.txt</rwdl:URI>
        <rwdl:RowKey column="bcr_patient_barcode">TCGA-3C-AAAU</rwdl:RowKey>
        <rwdl:ColumnName>initial_pathologic_dx_year</rwdl:ColumnName>
        <rwdl:SourceValue>2004</rwdl:SourceValue>
        <rwdl:Format>TSV</rwdl:Format>
      </rwdl:Coordinate>
    </rwdl:Source>
    <rwdl:Target>
      <rwdl:Coordinate storage="FILESYSTEM" structure="TABULAR">
        <rwdl:URI>./MH.txt</rwdl:URI>
        <rwdl:RowIndex>2</rwdl:RowIndex>
        <rwdl:ColumnName>MHSTRTPT</rwdl:ColumnName>
        <rwdl:TargetValue />
        <rwdl:Format>TSV</rwdl:Format>
      </rwdl:Coordinate>
    </rwdl:Target>
  </rwdl:MapID>
  <rwdl:MapID uuid="67f5cfc3-e627-5257-862c-b514e23e68ff" MethodDefOID="MT.MHSTRTPT.CONDITIONAL">
    <rwdl:Transformation type="Conditional Assign">Populated 'SCREENING' iff source == '[Not Available]'. [Source '2004' — not triggered, target blank.]</rwdl:Transformation>
    <rwdl:Source>
      <rwdl:Coordinate storage="FILESYSTEM" structure="TABULAR">
        <rwdl:URI>./nationwidechildrens_org_clinical_patient_brca.txt</rwdl:URI>
        <rwdl:RowKey column="bcr_patient_barcode">TCGA-3C-AAAU</rwdl:RowKey>
        <rwdl:ColumnName>initial_pathologic_dx_year</rwdl:ColumnName>
        <rwdl:SourceValue>2004</rwdl:SourceValue>
        <rwdl:Format>TSV</rwdl:Format>
      </rwdl:Coordinate>
    </rwdl:Source>
    <rwdl:Target>
      <rwdl:Coordinate storage="FILESYSTEM" structure="TABULAR">
        <rwdl:URI>./MH.txt</rwdl:URI>
        <rwdl:RowIndex>2</rwdl:RowIndex>
        <rwdl:ColumnName>MHSTTPT</rwdl:ColumnName>
        <rwdl:TargetValue />
        <rwdl:Format>TSV</rwdl:Format>
      </rwdl:Coordinate>
    </rwdl:Target>
  </rwdl:MapID>
  <rwdl:MapID uuid="9782aa54-1246-501c-8941-b98c2d5f400d">
    <rwdl:Transformation type="Direct Map">Direct copy of bcr_patient_barcode.</rwdl:Transformation>
    <rwdl:Source>
      <rwdl:Coordinate storage="FILESYSTEM" structure="TABULAR">
        <rwdl:URI>./nationwidechildrens_org_clinical_patient_brca.txt</rwdl:URI>
        <rwdl:RowKey column="bcr_patient_barcode">TCGA-3C-AALK</rwdl:RowKey>
        <rwdl:ColumnName>bcr_patient_barcode</rwdl:ColumnName>
        <rwdl:SourceValue />
        <rwdl:Format>TSV</rwdl:Format>
      </rwdl:Coordinate>
    </rwdl:Source>
    <rwdl:Target>
      <rwdl:Coordinate storage="FILESYSTEM" structure="TABULAR">
        <rwdl:URI>./MH.txt</rwdl:URI>
        <rwdl:RowIndex>3</rwdl:RowIndex>
        <rwdl:ColumnName>USUBJID</rwdl:ColumnName>
        <rwdl:TargetValue>TCGA-3C-AALK</rwdl:TargetValue>
        <rwdl:Format>TSV</rwdl:Format>
      </rwdl:Coordinate>
    </rwdl:Target>
  </rwdl:MapID>
  <rwdl:MapID uuid="ec65bb22-9253-5360-8e2e-2f992db532d1" MethodDefOID="MT.COMBINED.MHTERM">
    <rwdl:Transformation type="Conditional Concat">Conditional concat. See MT.COMBINED.MHTERM.</rwdl:Transformation>
    <rwdl:Source>
      <rwdl:Coordinate storage="FILESYSTEM" structure="TABULAR">
        <rwdl:URI>./nationwidechildrens_org_clinical_patient_brca.txt</rwdl:URI>
        <rwdl:RowKey column="bcr_patient_barcode">TCGA-3C-AALK</rwdl:RowKey>
        <rwdl:ColumnName>histological_type</rwdl:ColumnName>
        <rwdl:SourceValue>Infiltrating Ductal Carcinoma</rwdl:SourceValue>
        <rwdl:Format>TSV</rwdl:Format>
      </rwdl:Coordinate>
    </rwdl:Source>
    <rwdl:Target>
      <rwdl:Coordinate storage="FILESYSTEM" structure="TABULAR">
        <rwdl:URI>./MH.txt</rwdl:URI>
        <rwdl:RowIndex>3</rwdl:RowIndex>
        <rwdl:ColumnName>MHTERM</rwdl:ColumnName>
        <rwdl:TargetValue>Infiltrating Ductal Carcinoma</rwdl:TargetValue>
        <rwdl:Format>TSV</rwdl:Format>
      </rwdl:Coordinate>
    </rwdl:Target>
  </rwdl:MapID>
  <rwdl:MapID uuid="5fbf2c93-6ec4-54c2-a904-ff517479cfca" MethodDefOID="MT.COMBINED.MHDECOD">
    <rwdl:Transformation type="Lookup">ICD-O-3 code to text via lookup. See MT.COMBINED.MHDECOD.</rwdl:Transformation>
    <rwdl:Source>
      <rwdl:Coordinate storage="FILESYSTEM" structure="TABULAR">
        <rwdl:URI>./nationwidechildrens_org_clinical_patient_brca.txt</rwdl:URI>
        <rwdl:RowKey column="bcr_patient_barcode">TCGA-3C-AALK</rwdl:RowKey>
        <rwdl:ColumnName>icd_o_3_histology</rwdl:ColumnName>
        <rwdl:SourceValue>8500/3</rwdl:SourceValue>
        <rwdl:Format>TSV</rwdl:Format>
      </rwdl:Coordinate>
    </rwdl:Source>
    <rwdl:Target>
      <rwdl:Coordinate storage="FILESYSTEM" structure="TABULAR">
        <rwdl:URI>./MH.txt</rwdl:URI>
        <rwdl:RowIndex>3</rwdl:RowIndex>
        <rwdl:ColumnName>MHDECOD</rwdl:ColumnName>
        <rwdl:TargetValue>Infiltrating duct carcinoma, NOS</rwdl:TargetValue>
        <rwdl:Format>TSV</rwdl:Format>
      </rwdl:Coordinate>
    </rwdl:Target>
  </rwdl:MapID>
  <rwdl:MapID uuid="ecb8ca46-69da-5a6a-b267-54267a06ddc7" MethodDefOID="MT.COMBINED.MHSTDTC">
    <rwdl:Transformation type="ISO8601 Year or Blank">Year-only ISO8601; blank if '[Not Available]'.</rwdl:Transformation>
    <rwdl:Source>
      <rwdl:Coordinate storage="FILESYSTEM" structure="TABULAR">
        <rwdl:URI>./nationwidechildrens_org_clinical_patient_brca.txt</rwdl:URI>
        <rwdl:RowKey column="bcr_patient_barcode">TCGA-3C-AALK</rwdl:RowKey>
        <rwdl:ColumnName>initial_pathologic_dx_year</rwdl:ColumnName>
        <rwdl:SourceValue>2011</rwdl:SourceValue>
        <rwdl:Format>TSV</rwdl:Format>
      </rwdl:Coordinate>
    </rwdl:Source>
    <rwdl:Target>
      <rwdl:Coordinate storage="FILESYSTEM" structure="TABULAR">
        <rwdl:URI>./MH.txt</rwdl:URI>
        <rwdl:RowIndex>3</rwdl:RowIndex>
        <rwdl:ColumnName>MHSTDTC</rwdl:ColumnName>
        <rwdl:TargetValue>2011</rwdl:TargetValue>
        <rwdl:Format>TSV</rwdl:Format>
      </rwdl:Coordinate>
    </rwdl:Target>
  </rwdl:MapID>
  <rwdl:MapID uuid="9643a25a-b851-56fe-bb4a-3229d5ede51d" MethodDefOID="MT.COMBINED.MHDTC">
    <rwdl:Transformation type="ISO8601 Conversion">YYYY-M-D to zero-padded YYYY-MM-DD.</rwdl:Transformation>
    <rwdl:Source>
      <rwdl:Coordinate storage="FILESYSTEM" structure="TABULAR">
        <rwdl:URI>./nationwidechildrens_org_clinical_patient_brca.txt</rwdl:URI>
        <rwdl:RowKey column="bcr_patient_barcode">TCGA-3C-AALK</rwdl:RowKey>
        <rwdl:ColumnName>form_completion_date</rwdl:ColumnName>
        <rwdl:SourceValue>2014-7-28</rwdl:SourceValue>
        <rwdl:Format>TSV</rwdl:Format>
      </rwdl:Coordinate>
    </rwdl:Source>
    <rwdl:Target>
      <rwdl:Coordinate storage="FILESYSTEM" structure="TABULAR">
        <rwdl:URI>./MH.txt</rwdl:URI>
        <rwdl:RowIndex>3</rwdl:RowIndex>
        <rwdl:ColumnName>MHDTC</rwdl:ColumnName>
        <rwdl:TargetValue>2014-07-28</rwdl:TargetValue>
        <rwdl:Format>TSV</rwdl:Format>
      </rwdl:Coordinate>
    </rwdl:Target>
  </rwdl:MapID>
  <rwdl:MapID uuid="e52edb2d-dd54-5952-b1e7-3e49a2b9847a" MethodDefOID="MT.MHSTDY.DAYSPLUS1">
    <rwdl:Transformation type="Derivation">MHSTDY = source + 1.</rwdl:Transformation>
    <rwdl:Source>
      <rwdl:Coordinate storage="FILESYSTEM" structure="TABULAR">
        <rwdl:URI>./nationwidechildrens_org_clinical_patient_brca.txt</rwdl:URI>
        <rwdl:RowKey column="bcr_patient_barcode">TCGA-3C-AALK</rwdl:RowKey>
        <rwdl:ColumnName>days_to_initial_pathologic_diagnosis</rwdl:ColumnName>
        <rwdl:SourceValue>0</rwdl:SourceValue>
        <rwdl:Format>TSV</rwdl:Format>
      </rwdl:Coordinate>
    </rwdl:Source>
    <rwdl:Target>
      <rwdl:Coordinate storage="FILESYSTEM" structure="TABULAR">
        <rwdl:URI>./MH.txt</rwdl:URI>
        <rwdl:RowIndex>3</rwdl:RowIndex>
        <rwdl:ColumnName>MHSTDY</rwdl:ColumnName>
        <rwdl:TargetValue>1</rwdl:TargetValue>
        <rwdl:Format>TSV</rwdl:Format>
      </rwdl:Coordinate>
    </rwdl:Target>
  </rwdl:MapID>
  <rwdl:MapID uuid="39313e07-91ff-55b0-bba7-2615518992e2" MethodDefOID="MT.MHSTRTPT.CONDITIONAL">
    <rwdl:Transformation type="Conditional Assign">Populated 'BEFORE' iff source == '[Not Available]'. [Source '2011' — not triggered, target blank.]</rwdl:Transformation>
    <rwdl:Source>
      <rwdl:Coordinate storage="FILESYSTEM" structure="TABULAR">
        <rwdl:URI>./nationwidechildrens_org_clinical_patient_brca.txt</rwdl:URI>
        <rwdl:RowKey column="bcr_patient_barcode">TCGA-3C-AALK</rwdl:RowKey>
        <rwdl:ColumnName>initial_pathologic_dx_year</rwdl:ColumnName>
        <rwdl:SourceValue>2011</rwdl:SourceValue>
        <rwdl:Format>TSV</rwdl:Format>
      </rwdl:Coordinate>
    </rwdl:Source>
    <rwdl:Target>
      <rwdl:Coordinate storage="FILESYSTEM" structure="TABULAR">
        <rwdl:URI>./MH.txt</rwdl:URI>
        <rwdl:RowIndex>3</rwdl:RowIndex>
        <rwdl:ColumnName>MHSTRTPT</rwdl:ColumnName>
        <rwdl:TargetValue />
        <rwdl:Format>TSV</rwdl:Format>
      </rwdl:Coordinate>
    </rwdl:Target>
  </rwdl:MapID>
  <rwdl:MapID uuid="7c0b062f-108b-5d26-8a08-294b5ce5f126" MethodDefOID="MT.MHSTRTPT.CONDITIONAL">
    <rwdl:Transformation type="Conditional Assign">Populated 'SCREENING' iff source == '[Not Available]'. [Source '2011' — not triggered, target blank.]</rwdl:Transformation>
    <rwdl:Source>
      <rwdl:Coordinate storage="FILESYSTEM" structure="TABULAR">
        <rwdl:URI>./nationwidechildrens_org_clinical_patient_brca.txt</rwdl:URI>
        <rwdl:RowKey column="bcr_patient_barcode">TCGA-3C-AALK</rwdl:RowKey>
        <rwdl:ColumnName>initial_pathologic_dx_year</rwdl:ColumnName>
        <rwdl:SourceValue>2011</rwdl:SourceValue>
        <rwdl:Format>TSV</rwdl:Format>
      </rwdl:Coordinate>
    </rwdl:Source>
    <rwdl:Target>
      <rwdl:Coordinate storage="FILESYSTEM" structure="TABULAR">
        <rwdl:URI>./MH.txt</rwdl:URI>
        <rwdl:RowIndex>3</rwdl:RowIndex>
        <rwdl:ColumnName>MHSTTPT</rwdl:ColumnName>
        <rwdl:TargetValue />
        <rwdl:Format>TSV</rwdl:Format>
      </rwdl:Coordinate>
    </rwdl:Target>
  </rwdl:MapID>
  <rwdl:MapID uuid="b8d2201d-c252-57c2-9103-ca29607536c3">
    <rwdl:Transformation type="Direct Map">Direct copy of bcr_patient_barcode.</rwdl:Transformation>
    <rwdl:Source>
      <rwdl:Coordinate storage="FILESYSTEM" structure="TABULAR">
        <rwdl:URI>./nationwidechildrens_org_clinical_patient_brca.txt</rwdl:URI>
        <rwdl:RowKey column="bcr_patient_barcode">TCGA-4H-AAAK</rwdl:RowKey>
        <rwdl:ColumnName>bcr_patient_barcode</rwdl:ColumnName>
        <rwdl:SourceValue />
        <rwdl:Format>TSV</rwdl:Format>
      </rwdl:Coordinate>
    </rwdl:Source>
    <rwdl:Target>
      <rwdl:Coordinate storage="FILESYSTEM" structure="TABULAR">
        <rwdl:URI>./MH.txt</rwdl:URI>
        <rwdl:RowIndex>4</rwdl:RowIndex>
        <rwdl:ColumnName>USUBJID</rwdl:ColumnName>
        <rwdl:TargetValue>TCGA-4H-AAAK</rwdl:TargetValue>
        <rwdl:Format>TSV</rwdl:Format>
      </rwdl:Coordinate>
    </rwdl:Target>
  </rwdl:MapID>
  <rwdl:MapID uuid="84e19936-7b13-5f16-88e6-cc8d108f8960" MethodDefOID="MT.COMBINED.MHTERM">
    <rwdl:Transformation type="Conditional Concat">Conditional concat. See MT.COMBINED.MHTERM.</rwdl:Transformation>
    <rwdl:Source>
      <rwdl:Coordinate storage="FILESYSTEM" structure="TABULAR">
        <rwdl:URI>./nationwidechildrens_org_clinical_patient_brca.txt</rwdl:URI>
        <rwdl:RowKey column="bcr_patient_barcode">TCGA-4H-AAAK</rwdl:RowKey>
        <rwdl:ColumnName>histological_type</rwdl:ColumnName>
        <rwdl:SourceValue>Infiltrating Lobular Carcinoma</rwdl:SourceValue>
        <rwdl:Format>TSV</rwdl:Format>
      </rwdl:Coordinate>
    </rwdl:Source>
    <rwdl:Target>
      <rwdl:Coordinate storage="FILESYSTEM" structure="TABULAR">
        <rwdl:URI>./MH.txt</rwdl:URI>
        <rwdl:RowIndex>4</rwdl:RowIndex>
        <rwdl:ColumnName>MHTERM</rwdl:ColumnName>
        <rwdl:TargetValue>Infiltrating Lobular Carcinoma</rwdl:TargetValue>
        <rwdl:Format>TSV</rwdl:Format>
      </rwdl:Coordinate>
    </rwdl:Target>
  </rwdl:MapID>
  <rwdl:MapID uuid="5a52d754-9506-5550-8d10-b2238eeec8a5" MethodDefOID="MT.COMBINED.MHDECOD">
    <rwdl:Transformation type="Lookup">ICD-O-3 code to text via lookup. See MT.COMBINED.MHDECOD.</rwdl:Transformation>
    <rwdl:Source>
      <rwdl:Coordinate storage="FILESYSTEM" structure="TABULAR">
        <rwdl:URI>./nationwidechildrens_org_clinical_patient_brca.txt</rwdl:URI>
        <rwdl:RowKey column="bcr_patient_barcode">TCGA-4H-AAAK</rwdl:RowKey>
        <rwdl:ColumnName>icd_o_3_histology</rwdl:ColumnName>
        <rwdl:SourceValue>8520/3</rwdl:SourceValue>
        <rwdl:Format>TSV</rwdl:Format>
      </rwdl:Coordinate>
    </rwdl:Source>
    <rwdl:Target>
      <rwdl:Coordinate storage="FILESYSTEM" structure="TABULAR">
        <rwdl:URI>./MH.txt</rwdl:URI>
        <rwdl:RowIndex>4</rwdl:RowIndex>
        <rwdl:ColumnName>MHDECOD</rwdl:ColumnName>
        <rwdl:TargetValue>Lobular carcinoma, NOS</rwdl:TargetValue>
        <rwdl:Format>TSV</rwdl:Format>
      </rwdl:Coordinate>
    </rwdl:Target>
  </rwdl:MapID>
  <rwdl:MapID uuid="d0d7c6af-bc3c-5a28-9822-54e33a39ce4b" MethodDefOID="MT.COMBINED.MHSTDTC">
    <rwdl:Transformation type="ISO8601 Year or Blank">Year-only ISO8601; blank if '[Not Available]'.</rwdl:Transformation>
    <rwdl:Source>
      <rwdl:Coordinate storage="FILESYSTEM" structure="TABULAR">
        <rwdl:URI>./nationwidechildrens_org_clinical_patient_brca.txt</rwdl:URI>
        <rwdl:RowKey column="bcr_patient_barcode">TCGA-4H-AAAK</rwdl:RowKey>
        <rwdl:ColumnName>initial_pathologic_dx_year</rwdl:ColumnName>
        <rwdl:SourceValue>2013</rwdl:SourceValue>
        <rwdl:Format>TSV</rwdl:Format>
      </rwdl:Coordinate>
    </rwdl:Source>
    <rwdl:Target>
      <rwdl:Coordinate storage="FILESYSTEM" structure="TABULAR">
        <rwdl:URI>./MH.txt</rwdl:URI>
        <rwdl:RowIndex>4</rwdl:RowIndex>
        <rwdl:ColumnName>MHSTDTC</rwdl:ColumnName>
        <rwdl:TargetValue>2013</rwdl:TargetValue>
        <rwdl:Format>TSV</rwdl:Format>
      </rwdl:Coordinate>
    </rwdl:Target>
  </rwdl:MapID>
  <rwdl:MapID uuid="8aec91bb-4433-5c85-97f5-7229a3d70716" MethodDefOID="MT.COMBINED.MHDTC">
    <rwdl:Transformation type="ISO8601 Conversion">YYYY-M-D to zero-padded YYYY-MM-DD.</rwdl:Transformation>
    <rwdl:Source>
      <rwdl:Coordinate storage="FILESYSTEM" structure="TABULAR">
        <rwdl:URI>./nationwidechildrens_org_clinical_patient_brca.txt</rwdl:URI>
        <rwdl:RowKey column="bcr_patient_barcode">TCGA-4H-AAAK</rwdl:RowKey>
        <rwdl:ColumnName>form_completion_date</rwdl:ColumnName>
        <rwdl:SourceValue>2014-11-13</rwdl:SourceValue>
        <rwdl:Format>TSV</rwdl:Format>
      </rwdl:Coordinate>
    </rwdl:Source>
    <rwdl:Target>
      <rwdl:Coordinate storage="FILESYSTEM" structure="TABULAR">
        <rwdl:URI>./MH.txt</rwdl:URI>
        <rwdl:RowIndex>4</rwdl:RowIndex>
        <rwdl:ColumnName>MHDTC</rwdl:ColumnName>
        <rwdl:TargetValue>2014-11-13</rwdl:TargetValue>
        <rwdl:Format>TSV</rwdl:Format>
      </rwdl:Coordinate>
    </rwdl:Target>
  </rwdl:MapID>
  <rwdl:MapID uuid="d21300b2-33bb-535b-81d7-26b8d489f604" MethodDefOID="MT.MHSTDY.DAYSPLUS1">
    <rwdl:Transformation type="Derivation">MHSTDY = source + 1.</rwdl:Transformation>
    <rwdl:Source>
      <rwdl:Coordinate storage="FILESYSTEM" structure="TABULAR">
        <rwdl:URI>./nationwidechildrens_org_clinical_patient_brca.txt</rwdl:URI>
        <rwdl:RowKey column="bcr_patient_barcode">TCGA-4H-AAAK</rwdl:RowKey>
        <rwdl:ColumnName>days_to_initial_pathologic_diagnosis</rwdl:ColumnName>
        <rwdl:SourceValue>0</rwdl:SourceValue>
        <rwdl:Format>TSV</rwdl:Format>
      </rwdl:Coordinate>
    </rwdl:Source>
    <rwdl:Target>
      <rwdl:Coordinate storage="FILESYSTEM" structure="TABULAR">
        <rwdl:URI>./MH.txt</rwdl:URI>
        <rwdl:RowIndex>4</rwdl:RowIndex>
        <rwdl:ColumnName>MHSTDY</rwdl:ColumnName>
        <rwdl:TargetValue>1</rwdl:TargetValue>
        <rwdl:Format>TSV</rwdl:Format>
      </rwdl:Coordinate>
    </rwdl:Target>
  </rwdl:MapID>
  <rwdl:MapID uuid="098f51ed-2963-59dd-9b25-1c21f2d3e6ec" MethodDefOID="MT.MHSTRTPT.CONDITIONAL">
    <rwdl:Transformation type="Conditional Assign">Populated 'BEFORE' iff source == '[Not Available]'. [Source '2013' — not triggered, target blank.]</rwdl:Transformation>
    <rwdl:Source>
      <rwdl:Coordinate storage="FILESYSTEM" structure="TABULAR">
        <rwdl:URI>./nationwidechildrens_org_clinical_patient_brca.txt</rwdl:URI>
        <rwdl:RowKey column="bcr_patient_barcode">TCGA-4H-AAAK</rwdl:RowKey>
        <rwdl:ColumnName>initial_pathologic_dx_year</rwdl:ColumnName>
        <rwdl:SourceValue>2013</rwdl:SourceValue>
        <rwdl:Format>TSV</rwdl:Format>
      </rwdl:Coordinate>
    </rwdl:Source>
    <rwdl:Target>
      <rwdl:Coordinate storage="FILESYSTEM" structure="TABULAR">
        <rwdl:URI>./MH.txt</rwdl:URI>
        <rwdl:RowIndex>4</rwdl:RowIndex>
        <rwdl:ColumnName>MHSTRTPT</rwdl:ColumnName>
        <rwdl:TargetValue />
        <rwdl:Format>TSV</rwdl:Format>
      </rwdl:Coordinate>
    </rwdl:Target>
  </rwdl:MapID>
  <rwdl:MapID uuid="181efb73-b42f-569a-80e6-d4c23ee308d1" MethodDefOID="MT.MHSTRTPT.CONDITIONAL">
    <rwdl:Transformation type="Conditional Assign">Populated 'SCREENING' iff source == '[Not Available]'. [Source '2013' — not triggered, target blank.]</rwdl:Transformation>
    <rwdl:Source>
      <rwdl:Coordinate storage="FILESYSTEM" structure="TABULAR">
        <rwdl:URI>./nationwidechildrens_org_clinical_patient_brca.txt</rwdl:URI>
        <rwdl:RowKey column="bcr_patient_barcode">TCGA-4H-AAAK</rwdl:RowKey>
        <rwdl:ColumnName>initial_pathologic_dx_year</rwdl:ColumnName>
        <rwdl:SourceValue>2013</rwdl:SourceValue>
        <rwdl:Format>TSV</rwdl:Format>
      </rwdl:Coordinate>
    </rwdl:Source>
    <rwdl:Target>
      <rwdl:Coordinate storage="FILESYSTEM" structure="TABULAR">
        <rwdl:URI>./MH.txt</rwdl:URI>
        <rwdl:RowIndex>4</rwdl:RowIndex>
        <rwdl:ColumnName>MHSTTPT</rwdl:ColumnName>
        <rwdl:TargetValue />
        <rwdl:Format>TSV</rwdl:Format>
      </rwdl:Coordinate>
    </rwdl:Target>
  </rwdl:MapID>
  <rwdl:MapID uuid="8dffedbe-d754-58ed-802f-dde67550bca4">
    <rwdl:Transformation type="Direct Map">Direct copy of bcr_patient_barcode.</rwdl:Transformation>
    <rwdl:Source>
      <rwdl:Coordinate storage="FILESYSTEM" structure="TABULAR">
        <rwdl:URI>./nationwidechildrens_org_clinical_patient_brca.txt</rwdl:URI>
        <rwdl:RowKey column="bcr_patient_barcode">TCGA-A1-A0SF</rwdl:RowKey>
        <rwdl:ColumnName>bcr_patient_barcode</rwdl:ColumnName>
        <rwdl:SourceValue />
        <rwdl:Format>TSV</rwdl:Format>
      </rwdl:Coordinate>
    </rwdl:Source>
    <rwdl:Target>
      <rwdl:Coordinate storage="FILESYSTEM" structure="TABULAR">
        <rwdl:URI>./MH.txt</rwdl:URI>
        <rwdl:RowIndex>5</rwdl:RowIndex>
        <rwdl:ColumnName>USUBJID</rwdl:ColumnName>
        <rwdl:TargetValue>TCGA-A1-A0SF</rwdl:TargetValue>
        <rwdl:Format>TSV</rwdl:Format>
      </rwdl:Coordinate>
    </rwdl:Target>
  </rwdl:MapID>
  <rwdl:MapID uuid="b1bd6785-e783-541e-9e9f-7ff0cbf034e1" MethodDefOID="MT.COMBINED.MHTERM">
    <rwdl:Transformation type="Conditional Concat">Conditional concat. See MT.COMBINED.MHTERM.</rwdl:Transformation>
    <rwdl:Source>
      <rwdl:Coordinate storage="FILESYSTEM" structure="TABULAR">
        <rwdl:URI>./nationwidechildrens_org_clinical_patient_brca.txt</rwdl:URI>
        <rwdl:RowKey column="bcr_patient_barcode">TCGA-A1-A0SF</rwdl:RowKey>
        <rwdl:ColumnName>histological_type</rwdl:ColumnName>
        <rwdl:SourceValue>Infiltrating Ductal Carcinoma</rwdl:SourceValue>
        <rwdl:Format>TSV</rwdl:Format>
      </rwdl:Coordinate>
    </rwdl:Source>
    <rwdl:Target>
      <rwdl:Coordinate storage="FILESYSTEM" structure="TABULAR">
        <rwdl:URI>./MH.txt</rwdl:URI>
        <rwdl:RowIndex>5</rwdl:RowIndex>
        <rwdl:ColumnName>MHTERM</rwdl:ColumnName>
        <rwdl:TargetValue>Infiltrating Ductal Carcinoma</rwdl:TargetValue>
        <rwdl:Format>TSV</rwdl:Format>
      </rwdl:Coordinate>
    </rwdl:Target>
  </rwdl:MapID>
  <rwdl:MapID uuid="ac0b7b00-86a0-542d-8bbb-f663e31aab5f" MethodDefOID="MT.COMBINED.MHDECOD">
    <rwdl:Transformation type="Lookup">ICD-O-3 code to text via lookup. See MT.COMBINED.MHDECOD.</rwdl:Transformation>
    <rwdl:Source>
      <rwdl:Coordinate storage="FILESYSTEM" structure="TABULAR">
        <rwdl:URI>./nationwidechildrens_org_clinical_patient_brca.txt</rwdl:URI>
        <rwdl:RowKey column="bcr_patient_barcode">TCGA-A1-A0SF</rwdl:RowKey>
        <rwdl:ColumnName>icd_o_3_histology</rwdl:ColumnName>
        <rwdl:SourceValue>8500/3</rwdl:SourceValue>
        <rwdl:Format>TSV</rwdl:Format>
      </rwdl:Coordinate>
    </rwdl:Source>
    <rwdl:Target>
      <rwdl:Coordinate storage="FILESYSTEM" structure="TABULAR">
        <rwdl:URI>./MH.txt</rwdl:URI>
        <rwdl:RowIndex>5</rwdl:RowIndex>
        <rwdl:ColumnName>MHDECOD</rwdl:ColumnName>
        <rwdl:TargetValue>Infiltrating duct carcinoma, NOS</rwdl:TargetValue>
        <rwdl:Format>TSV</rwdl:Format>
      </rwdl:Coordinate>
    </rwdl:Target>
  </rwdl:MapID>
  <rwdl:MapID uuid="656c2834-b7bb-510f-9d7a-8f6aaa2427df" MethodDefOID="MT.COMBINED.MHSTDTC">
    <rwdl:Transformation type="ISO8601 Year or Blank">Year-only ISO8601; blank if '[Not Available]'.</rwdl:Transformation>
    <rwdl:Source>
      <rwdl:Coordinate storage="FILESYSTEM" structure="TABULAR">
        <rwdl:URI>./nationwidechildrens_org_clinical_patient_brca.txt</rwdl:URI>
        <rwdl:RowKey column="bcr_patient_barcode">TCGA-A1-A0SF</rwdl:RowKey>
        <rwdl:ColumnName>initial_pathologic_dx_year</rwdl:ColumnName>
        <rwdl:SourceValue>2006</rwdl:SourceValue>
        <rwdl:Format>TSV</rwdl:Format>
      </rwdl:Coordinate>
    </rwdl:Source>
    <rwdl:Target>
      <rwdl:Coordinate storage="FILESYSTEM" structure="TABULAR">
        <rwdl:URI>./MH.txt</rwdl:URI>
        <rwdl:RowIndex>5</rwdl:RowIndex>
        <rwdl:ColumnName>MHSTDTC</rwdl:ColumnName>
        <rwdl:TargetValue>2006</rwdl:TargetValue>
        <rwdl:Format>TSV</rwdl:Format>
      </rwdl:Coordinate>
    </rwdl:Target>
  </rwdl:MapID>
  <rwdl:MapID uuid="2820f408-2520-5724-9778-28693cb9d52f" MethodDefOID="MT.COMBINED.MHDTC">
    <rwdl:Transformation type="ISO8601 Conversion">YYYY-M-D to zero-padded YYYY-MM-DD.</rwdl:Transformation>
    <rwdl:Source>
      <rwdl:Coordinate storage="FILESYSTEM" structure="TABULAR">
        <rwdl:URI>./nationwidechildrens_org_clinical_patient_brca.txt</rwdl:URI>
        <rwdl:RowKey column="bcr_patient_barcode">TCGA-A1-A0SF</rwdl:RowKey>
        <rwdl:ColumnName>form_completion_date</rwdl:ColumnName>
        <rwdl:SourceValue>2011-5-24</rwdl:SourceValue>
        <rwdl:Format>TSV</rwdl:Format>
      </rwdl:Coordinate>
    </rwdl:Source>
    <rwdl:Target>
      <rwdl:Coordinate storage="FILESYSTEM" structure="TABULAR">
        <rwdl:URI>./MH.txt</rwdl:URI>
        <rwdl:RowIndex>5</rwdl:RowIndex>
        <rwdl:ColumnName>MHDTC</rwdl:ColumnName>
        <rwdl:TargetValue>2011-05-24</rwdl:TargetValue>
        <rwdl:Format>TSV</rwdl:Format>
      </rwdl:Coordinate>
    </rwdl:Target>
  </rwdl:MapID>
  <rwdl:MapID uuid="0ca58f3a-745a-555d-a469-f20e056af89c" MethodDefOID="MT.MHSTDY.DAYSPLUS1">
    <rwdl:Transformation type="Derivation">MHSTDY = source + 1.</rwdl:Transformation>
    <rwdl:Source>
      <rwdl:Coordinate storage="FILESYSTEM" structure="TABULAR">
        <rwdl:URI>./nationwidechildrens_org_clinical_patient_brca.txt</rwdl:URI>
        <rwdl:RowKey column="bcr_patient_barcode">TCGA-A1-A0SF</rwdl:RowKey>
        <rwdl:ColumnName>days_to_initial_pathologic_diagnosis</rwdl:ColumnName>
        <rwdl:SourceValue>0</rwdl:SourceValue>
        <rwdl:Format>TSV</rwdl:Format>
      </rwdl:Coordinate>
    </rwdl:Source>
    <rwdl:Target>
      <rwdl:Coordinate storage="FILESYSTEM" structure="TABULAR">
        <rwdl:URI>./MH.txt</rwdl:URI>
        <rwdl:RowIndex>5</rwdl:RowIndex>
        <rwdl:ColumnName>MHSTDY</rwdl:ColumnName>
        <rwdl:TargetValue>1</rwdl:TargetValue>
        <rwdl:Format>TSV</rwdl:Format>
      </rwdl:Coordinate>
    </rwdl:Target>
  </rwdl:MapID>
  <rwdl:MapID uuid="6c98c90a-fb6c-592e-bd44-bb82901430de" MethodDefOID="MT.MHSTRTPT.CONDITIONAL">
    <rwdl:Transformation type="Conditional Assign">Populated 'BEFORE' iff source == '[Not Available]'. [Source '2006' — not triggered, target blank.]</rwdl:Transformation>
    <rwdl:Source>
      <rwdl:Coordinate storage="FILESYSTEM" structure="TABULAR">
        <rwdl:URI>./nationwidechildrens_org_clinical_patient_brca.txt</rwdl:URI>
        <rwdl:RowKey column="bcr_patient_barcode">TCGA-A1-A0SF</rwdl:RowKey>
        <rwdl:ColumnName>initial_pathologic_dx_year</rwdl:ColumnName>
        <rwdl:SourceValue>2006</rwdl:SourceValue>
        <rwdl:Format>TSV</rwdl:Format>
      </rwdl:Coordinate>
    </rwdl:Source>
    <rwdl:Target>
      <rwdl:Coordinate storage="FILESYSTEM" structure="TABULAR">
        <rwdl:URI>./MH.txt</rwdl:URI>
        <rwdl:RowIndex>5</rwdl:RowIndex>
        <rwdl:ColumnName>MHSTRTPT</rwdl:ColumnName>
        <rwdl:TargetValue />
        <rwdl:Format>TSV</rwdl:Format>
      </rwdl:Coordinate>
    </rwdl:Target>
  </rwdl:MapID>
  <rwdl:MapID uuid="92eb4d48-fb72-5295-856a-28e5dfba251d" MethodDefOID="MT.MHSTRTPT.CONDITIONAL">
    <rwdl:Transformation type="Conditional Assign">Populated 'SCREENING' iff source == '[Not Available]'. [Source '2006' — not triggered, target blank.]</rwdl:Transformation>
    <rwdl:Source>
      <rwdl:Coordinate storage="FILESYSTEM" structure="TABULAR">
        <rwdl:URI>./nationwidechildrens_org_clinical_patient_brca.txt</rwdl:URI>
        <rwdl:RowKey column="bcr_patient_barcode">TCGA-A1-A0SF</rwdl:RowKey>
        <rwdl:ColumnName>initial_pathologic_dx_year</rwdl:ColumnName>
        <rwdl:SourceValue>2006</rwdl:SourceValue>
        <rwdl:Format>TSV</rwdl:Format>
      </rwdl:Coordinate>
    </rwdl:Source>
    <rwdl:Target>
      <rwdl:Coordinate storage="FILESYSTEM" structure="TABULAR">
        <rwdl:URI>./MH.txt</rwdl:URI>
        <rwdl:RowIndex>5</rwdl:RowIndex>
        <rwdl:ColumnName>MHSTTPT</rwdl:ColumnName>
        <rwdl:TargetValue />
        <rwdl:Format>TSV</rwdl:Format>
      </rwdl:Coordinate>
    </rwdl:Target>
  </rwdl:MapID>
  <rwdl:MapID uuid="2d4aa4aa-eab4-55d1-8af3-c451f94cac4f">
    <rwdl:Transformation type="Direct Map">Direct copy of bcr_patient_barcode.</rwdl:Transformation>
    <rwdl:Source>
      <rwdl:Coordinate storage="FILESYSTEM" structure="TABULAR">
        <rwdl:URI>./nationwidechildrens_org_clinical_patient_brca.txt</rwdl:URI>
        <rwdl:RowKey column="bcr_patient_barcode">TCGA-A1-A0SH</rwdl:RowKey>
        <rwdl:ColumnName>bcr_patient_barcode</rwdl:ColumnName>
        <rwdl:SourceValue />
        <rwdl:Format>TSV</rwdl:Format>
      </rwdl:Coordinate>
    </rwdl:Source>
    <rwdl:Target>
      <rwdl:Coordinate storage="FILESYSTEM" structure="TABULAR">
        <rwdl:URI>./MH.txt</rwdl:URI>
        <rwdl:RowIndex>6</rwdl:RowIndex>
        <rwdl:ColumnName>USUBJID</rwdl:ColumnName>
        <rwdl:TargetValue>TCGA-A1-A0SH</rwdl:TargetValue>
        <rwdl:Format>TSV</rwdl:Format>
      </rwdl:Coordinate>
    </rwdl:Target>
  </rwdl:MapID>
  <rwdl:MapID uuid="b34c457f-3cbd-5a3d-821c-767d43936eff" MethodDefOID="MT.COMBINED.MHTERM">
    <rwdl:Transformation type="Conditional Concat">Conditional concat. See MT.COMBINED.MHTERM.</rwdl:Transformation>
    <rwdl:Source>
      <rwdl:Coordinate storage="FILESYSTEM" structure="TABULAR">
        <rwdl:URI>./nationwidechildrens_org_clinical_patient_brca.txt</rwdl:URI>
        <rwdl:RowKey column="bcr_patient_barcode">TCGA-A1-A0SH</rwdl:RowKey>
        <rwdl:ColumnName>histological_type</rwdl:ColumnName>
        <rwdl:SourceValue>Infiltrating Ductal Carcinoma</rwdl:SourceValue>
        <rwdl:Format>TSV</rwdl:Format>
      </rwdl:Coordinate>
    </rwdl:Source>
    <rwdl:Target>
      <rwdl:Coordinate storage="FILESYSTEM" structure="TABULAR">
        <rwdl:URI>./MH.txt</rwdl:URI>
        <rwdl:RowIndex>6</rwdl:RowIndex>
        <rwdl:ColumnName>MHTERM</rwdl:ColumnName>
        <rwdl:TargetValue>Infiltrating Ductal Carcinoma</rwdl:TargetValue>
        <rwdl:Format>TSV</rwdl:Format>
      </rwdl:Coordinate>
    </rwdl:Target>
  </rwdl:MapID>
  <rwdl:MapID uuid="a82c6747-c3f5-5085-8494-d9f255fb476a" MethodDefOID="MT.COMBINED.MHDECOD">
    <rwdl:Transformation type="Lookup">ICD-O-3 code to text via lookup. See MT.COMBINED.MHDECOD.</rwdl:Transformation>
    <rwdl:Source>
      <rwdl:Coordinate storage="FILESYSTEM" structure="TABULAR">
        <rwdl:URI>./nationwidechildrens_org_clinical_patient_brca.txt</rwdl:URI>
        <rwdl:RowKey column="bcr_patient_barcode">TCGA-A1-A0SH</rwdl:RowKey>
        <rwdl:ColumnName>icd_o_3_histology</rwdl:ColumnName>
        <rwdl:SourceValue>8500/3</rwdl:SourceValue>
        <rwdl:Format>TSV</rwdl:Format>
      </rwdl:Coordinate>
    </rwdl:Source>
    <rwdl:Target>
      <rwdl:Coordinate storage="FILESYSTEM" structure="TABULAR">
        <rwdl:URI>./MH.txt</rwdl:URI>
        <rwdl:RowIndex>6</rwdl:RowIndex>
        <rwdl:ColumnName>MHDECOD</rwdl:ColumnName>
        <rwdl:TargetValue>Infiltrating duct carcinoma, NOS</rwdl:TargetValue>
        <rwdl:Format>TSV</rwdl:Format>
      </rwdl:Coordinate>
    </rwdl:Target>
  </rwdl:MapID>
  <rwdl:MapID uuid="7b39e85f-1bc5-5427-832c-4a260b35950c" MethodDefOID="MT.COMBINED.MHSTDTC">
    <rwdl:Transformation type="ISO8601 Year or Blank">Year-only ISO8601; blank if '[Not Available]'.</rwdl:Transformation>
    <rwdl:Source>
      <rwdl:Coordinate storage="FILESYSTEM" structure="TABULAR">
        <rwdl:URI>./nationwidechildrens_org_clinical_patient_brca.txt</rwdl:URI>
        <rwdl:RowKey column="bcr_patient_barcode">TCGA-A1-A0SH</rwdl:RowKey>
        <rwdl:ColumnName>initial_pathologic_dx_year</rwdl:ColumnName>
        <rwdl:SourceValue>2006</rwdl:SourceValue>
        <rwdl:Format>TSV</rwdl:Format>
      </rwdl:Coordinate>
    </rwdl:Source>
    <rwdl:Target>
      <rwdl:Coordinate storage="FILESYSTEM" structure="TABULAR">
        <rwdl:URI>./MH.txt</rwdl:URI>
        <rwdl:RowIndex>6</rwdl:RowIndex>
        <rwdl:ColumnName>MHSTDTC</rwdl:ColumnName>
        <rwdl:TargetValue>2006</rwdl:TargetValue>
        <rwdl:Format>TSV</rwdl:Format>
      </rwdl:Coordinate>
    </rwdl:Target>
  </rwdl:MapID>
  <rwdl:MapID uuid="b57402b9-bcfd-5005-9925-a8cfd867f5ac" MethodDefOID="MT.COMBINED.MHDTC">
    <rwdl:Transformation type="ISO8601 Conversion">YYYY-M-D to zero-padded YYYY-MM-DD.</rwdl:Transformation>
    <rwdl:Source>
      <rwdl:Coordinate storage="FILESYSTEM" structure="TABULAR">
        <rwdl:URI>./nationwidechildrens_org_clinical_patient_brca.txt</rwdl:URI>
        <rwdl:RowKey column="bcr_patient_barcode">TCGA-A1-A0SH</rwdl:RowKey>
        <rwdl:ColumnName>form_completion_date</rwdl:ColumnName>
        <rwdl:SourceValue>2010-12-6</rwdl:SourceValue>
        <rwdl:Format>TSV</rwdl:Format>
      </rwdl:Coordinate>
    </rwdl:Source>
    <rwdl:Target>
      <rwdl:Coordinate storage="FILESYSTEM" structure="TABULAR">
        <rwdl:URI>./MH.txt</rwdl:URI>
        <rwdl:RowIndex>6</rwdl:RowIndex>
        <rwdl:ColumnName>MHDTC</rwdl:ColumnName>
        <rwdl:TargetValue>2010-12-06</rwdl:TargetValue>
        <rwdl:Format>TSV</rwdl:Format>
      </rwdl:Coordinate>
    </rwdl:Target>
  </rwdl:MapID>
  <rwdl:MapID uuid="7e310f2e-f74a-5361-b995-c7739aadd96d" MethodDefOID="MT.MHSTDY.DAYSPLUS1">
    <rwdl:Transformation type="Derivation">MHSTDY = source + 1.</rwdl:Transformation>
    <rwdl:Source>
      <rwdl:Coordinate storage="FILESYSTEM" structure="TABULAR">
        <rwdl:URI>./nationwidechildrens_org_clinical_patient_brca.txt</rwdl:URI>
        <rwdl:RowKey column="bcr_patient_barcode">TCGA-A1-A0SH</rwdl:RowKey>
        <rwdl:ColumnName>days_to_initial_pathologic_diagnosis</rwdl:ColumnName>
        <rwdl:SourceValue>0</rwdl:SourceValue>
        <rwdl:Format>TSV</rwdl:Format>
      </rwdl:Coordinate>
    </rwdl:Source>
    <rwdl:Target>
      <rwdl:Coordinate storage="FILESYSTEM" structure="TABULAR">
        <rwdl:URI>./MH.txt</rwdl:URI>
        <rwdl:RowIndex>6</rwdl:RowIndex>
        <rwdl:ColumnName>MHSTDY</rwdl:ColumnName>
        <rwdl:TargetValue>1</rwdl:TargetValue>
        <rwdl:Format>TSV</rwdl:Format>
      </rwdl:Coordinate>
    </rwdl:Target>
  </rwdl:MapID>
  <rwdl:MapID uuid="982facf4-b782-5de0-81c8-9be210620a91" MethodDefOID="MT.MHSTRTPT.CONDITIONAL">
    <rwdl:Transformation type="Conditional Assign">Populated 'BEFORE' iff source == '[Not Available]'. [Source '2006' — not triggered, target blank.]</rwdl:Transformation>
    <rwdl:Source>
      <rwdl:Coordinate storage="FILESYSTEM" structure="TABULAR">
        <rwdl:URI>./nationwidechildrens_org_clinical_patient_brca.txt</rwdl:URI>
        <rwdl:RowKey column="bcr_patient_barcode">TCGA-A1-A0SH</rwdl:RowKey>
        <rwdl:ColumnName>initial_pathologic_dx_year</rwdl:ColumnName>
        <rwdl:SourceValue>2006</rwdl:SourceValue>
        <rwdl:Format>TSV</rwdl:Format>
      </rwdl:Coordinate>
    </rwdl:Source>
    <rwdl:Target>
      <rwdl:Coordinate storage="FILESYSTEM" structure="TABULAR">
        <rwdl:URI>./MH.txt</rwdl:URI>
        <rwdl:RowIndex>6</rwdl:RowIndex>
        <rwdl:ColumnName>MHSTRTPT</rwdl:ColumnName>
        <rwdl:TargetValue />
        <rwdl:Format>TSV</rwdl:Format>
      </rwdl:Coordinate>
    </rwdl:Target>
  </rwdl:MapID>
  <rwdl:MapID uuid="28c116b1-609c-5e39-964d-67a411ab7ffa" MethodDefOID="MT.MHSTRTPT.CONDITIONAL">
    <rwdl:Transformation type="Conditional Assign">Populated 'SCREENING' iff source == '[Not Available]'. [Source '2006' — not triggered, target blank.]</rwdl:Transformation>
    <rwdl:Source>
      <rwdl:Coordinate storage="FILESYSTEM" structure="TABULAR">
        <rwdl:URI>./nationwidechildrens_org_clinical_patient_brca.txt</rwdl:URI>
        <rwdl:RowKey column="bcr_patient_barcode">TCGA-A1-A0SH</rwdl:RowKey>
        <rwdl:ColumnName>initial_pathologic_dx_year</rwdl:ColumnName>
        <rwdl:SourceValue>2006</rwdl:SourceValue>
        <rwdl:Format>TSV</rwdl:Format>
      </rwdl:Coordinate>
    </rwdl:Source>
    <rwdl:Target>
      <rwdl:Coordinate storage="FILESYSTEM" structure="TABULAR">
        <rwdl:URI>./MH.txt</rwdl:URI>
        <rwdl:RowIndex>6</rwdl:RowIndex>
        <rwdl:ColumnName>MHSTTPT</rwdl:ColumnName>
        <rwdl:TargetValue />
        <rwdl:Format>TSV</rwdl:Format>
      </rwdl:Coordinate>
    </rwdl:Target>
  </rwdl:MapID>
  <rwdl:MapID uuid="592ebeb3-ee9f-5ad6-879e-e062ac56cf7a">
    <rwdl:Transformation type="Direct Map">Direct copy of bcr_patient_barcode.</rwdl:Transformation>
    <rwdl:Source>
      <rwdl:Coordinate storage="FILESYSTEM" structure="TABULAR">
        <rwdl:URI>./nationwidechildrens_org_clinical_patient_brca.txt</rwdl:URI>
        <rwdl:RowKey column="bcr_patient_barcode">TCGA-A1-A0SN</rwdl:RowKey>
        <rwdl:ColumnName>bcr_patient_barcode</rwdl:ColumnName>
        <rwdl:SourceValue />
        <rwdl:Format>TSV</rwdl:Format>
      </rwdl:Coordinate>
    </rwdl:Source>
    <rwdl:Target>
      <rwdl:Coordinate storage="FILESYSTEM" structure="TABULAR">
        <rwdl:URI>./MH.txt</rwdl:URI>
        <rwdl:RowIndex>7</rwdl:RowIndex>
        <rwdl:ColumnName>USUBJID</rwdl:ColumnName>
        <rwdl:TargetValue>TCGA-A1-A0SN</rwdl:TargetValue>
        <rwdl:Format>TSV</rwdl:Format>
      </rwdl:Coordinate>
    </rwdl:Target>
  </rwdl:MapID>
  <rwdl:MapID uuid="7562a706-a5c0-504e-bd46-616eff1340fa" MethodDefOID="MT.COMBINED.MHTERM">
    <rwdl:Transformation type="Conditional Concat">Conditional concat. See MT.COMBINED.MHTERM.</rwdl:Transformation>
    <rwdl:Source>
      <rwdl:Coordinate storage="FILESYSTEM" structure="TABULAR">
        <rwdl:URI>./nationwidechildrens_org_clinical_patient_brca.txt</rwdl:URI>
        <rwdl:RowKey column="bcr_patient_barcode">TCGA-A1-A0SN</rwdl:RowKey>
        <rwdl:ColumnName>histological_type</rwdl:ColumnName>
        <rwdl:SourceValue>Infiltrating Ductal Carcinoma</rwdl:SourceValue>
        <rwdl:Format>TSV</rwdl:Format>
      </rwdl:Coordinate>
    </rwdl:Source>
    <rwdl:Target>
      <rwdl:Coordinate storage="FILESYSTEM" structure="TABULAR">
        <rwdl:URI>./MH.txt</rwdl:URI>
        <rwdl:RowIndex>7</rwdl:RowIndex>
        <rwdl:ColumnName>MHTERM</rwdl:ColumnName>
        <rwdl:TargetValue>Infiltrating Ductal Carcinoma</rwdl:TargetValue>
        <rwdl:Format>TSV</rwdl:Format>
      </rwdl:Coordinate>
    </rwdl:Target>
  </rwdl:MapID>
  <rwdl:MapID uuid="807a9f8b-6cbc-5015-b109-29ca6ca8dca0" MethodDefOID="MT.COMBINED.MHDECOD">
    <rwdl:Transformation type="Lookup">ICD-O-3 code to text via lookup. See MT.COMBINED.MHDECOD.</rwdl:Transformation>
    <rwdl:Source>
      <rwdl:Coordinate storage="FILESYSTEM" structure="TABULAR">
        <rwdl:URI>./nationwidechildrens_org_clinical_patient_brca.txt</rwdl:URI>
        <rwdl:RowKey column="bcr_patient_barcode">TCGA-A1-A0SN</rwdl:RowKey>
        <rwdl:ColumnName>icd_o_3_histology</rwdl:ColumnName>
        <rwdl:SourceValue>8500/3</rwdl:SourceValue>
        <rwdl:Format>TSV</rwdl:Format>
      </rwdl:Coordinate>
    </rwdl:Source>
    <rwdl:Target>
      <rwdl:Coordinate storage="FILESYSTEM" structure="TABULAR">
        <rwdl:URI>./MH.txt</rwdl:URI>
        <rwdl:RowIndex>7</rwdl:RowIndex>
        <rwdl:ColumnName>MHDECOD</rwdl:ColumnName>
        <rwdl:TargetValue>Infiltrating duct carcinoma, NOS</rwdl:TargetValue>
        <rwdl:Format>TSV</rwdl:Format>
      </rwdl:Coordinate>
    </rwdl:Target>
  </rwdl:MapID>
  <rwdl:MapID uuid="63b1abf9-8daf-5eee-acef-69904eeb279f" MethodDefOID="MT.COMBINED.MHSTDTC">
    <rwdl:Transformation type="ISO8601 Year or Blank">Year-only ISO8601; blank if '[Not Available]'.</rwdl:Transformation>
    <rwdl:Source>
      <rwdl:Coordinate storage="FILESYSTEM" structure="TABULAR">
        <rwdl:URI>./nationwidechildrens_org_clinical_patient_brca.txt</rwdl:URI>
        <rwdl:RowKey column="bcr_patient_barcode">TCGA-A1-A0SN</rwdl:RowKey>
        <rwdl:ColumnName>initial_pathologic_dx_year</rwdl:ColumnName>
        <rwdl:SourceValue>2007</rwdl:SourceValue>
        <rwdl:Format>TSV</rwdl:Format>
      </rwdl:Coordinate>
    </rwdl:Source>
    <rwdl:Target>
      <rwdl:Coordinate storage="FILESYSTEM" structure="TABULAR">
        <rwdl:URI>./MH.txt</rwdl:URI>
        <rwdl:RowIndex>7</rwdl:RowIndex>
        <rwdl:ColumnName>MHSTDTC</rwdl:ColumnName>
        <rwdl:TargetValue>2007</rwdl:TargetValue>
        <rwdl:Format>TSV</rwdl:Format>
      </rwdl:Coordinate>
    </rwdl:Target>
  </rwdl:MapID>
  <rwdl:MapID uuid="a4c88416-2d2a-5cef-ab1a-8fa5fa7a9071" MethodDefOID="MT.COMBINED.MHDTC">
    <rwdl:Transformation type="ISO8601 Conversion">YYYY-M-D to zero-padded YYYY-MM-DD.</rwdl:Transformation>
    <rwdl:Source>
      <rwdl:Coordinate storage="FILESYSTEM" structure="TABULAR">
        <rwdl:URI>./nationwidechildrens_org_clinical_patient_brca.txt</rwdl:URI>
        <rwdl:RowKey column="bcr_patient_barcode">TCGA-A1-A0SN</rwdl:RowKey>
        <rwdl:ColumnName>form_completion_date</rwdl:ColumnName>
        <rwdl:SourceValue>2011-5-23</rwdl:SourceValue>
        <rwdl:Format>TSV</rwdl:Format>
      </rwdl:Coordinate>
    </rwdl:Source>
    <rwdl:Target>
      <rwdl:Coordinate storage="FILESYSTEM" structure="TABULAR">
        <rwdl:URI>./MH.txt</rwdl:URI>
        <rwdl:RowIndex>7</rwdl:RowIndex>
        <rwdl:ColumnName>MHDTC</rwdl:ColumnName>
        <rwdl:TargetValue>2011-05-23</rwdl:TargetValue>
        <rwdl:Format>TSV</rwdl:Format>
      </rwdl:Coordinate>
    </rwdl:Target>
  </rwdl:MapID>
  <rwdl:MapID uuid="c8ae072b-ec60-5c75-892b-553032dd69de" MethodDefOID="MT.MHSTDY.DAYSPLUS1">
    <rwdl:Transformation type="Derivation">MHSTDY = source + 1.</rwdl:Transformation>
    <rwdl:Source>
      <rwdl:Coordinate storage="FILESYSTEM" structure="TABULAR">
        <rwdl:URI>./nationwidechildrens_org_clinical_patient_brca.txt</rwdl:URI>
        <rwdl:RowKey column="bcr_patient_barcode">TCGA-A1-A0SN</rwdl:RowKey>
        <rwdl:ColumnName>days_to_initial_pathologic_diagnosis</rwdl:ColumnName>
        <rwdl:SourceValue>0</rwdl:SourceValue>
        <rwdl:Format>TSV</rwdl:Format>
      </rwdl:Coordinate>
    </rwdl:Source>
    <rwdl:Target>
      <rwdl:Coordinate storage="FILESYSTEM" structure="TABULAR">
        <rwdl:URI>./MH.txt</rwdl:URI>
        <rwdl:RowIndex>7</rwdl:RowIndex>
        <rwdl:ColumnName>MHSTDY</rwdl:ColumnName>
        <rwdl:TargetValue>1</rwdl:TargetValue>
        <rwdl:Format>TSV</rwdl:Format>
      </rwdl:Coordinate>
    </rwdl:Target>
  </rwdl:MapID>
  <rwdl:MapID uuid="7803898f-26a8-549a-a65d-05e731f97b4d" MethodDefOID="MT.MHSTRTPT.CONDITIONAL">
    <rwdl:Transformation type="Conditional Assign">Populated 'BEFORE' iff source == '[Not Available]'. [Source '2007' — not triggered, target blank.]</rwdl:Transformation>
    <rwdl:Source>
      <rwdl:Coordinate storage="FILESYSTEM" structure="TABULAR">
        <rwdl:URI>./nationwidechildrens_org_clinical_patient_brca.txt</rwdl:URI>
        <rwdl:RowKey column="bcr_patient_barcode">TCGA-A1-A0SN</rwdl:RowKey>
        <rwdl:ColumnName>initial_pathologic_dx_year</rwdl:ColumnName>
        <rwdl:SourceValue>2007</rwdl:SourceValue>
        <rwdl:Format>TSV</rwdl:Format>
      </rwdl:Coordinate>
    </rwdl:Source>
    <rwdl:Target>
      <rwdl:Coordinate storage="FILESYSTEM" structure="TABULAR">
        <rwdl:URI>./MH.txt</rwdl:URI>
        <rwdl:RowIndex>7</rwdl:RowIndex>
        <rwdl:ColumnName>MHSTRTPT</rwdl:ColumnName>
        <rwdl:TargetValue />
        <rwdl:Format>TSV</rwdl:Format>
      </rwdl:Coordinate>
    </rwdl:Target>
  </rwdl:MapID>
  <rwdl:MapID uuid="4f170f8b-2846-576f-81a7-3a52b0b85fef" MethodDefOID="MT.MHSTRTPT.CONDITIONAL">
    <rwdl:Transformation type="Conditional Assign">Populated 'SCREENING' iff source == '[Not Available]'. [Source '2007' — not triggered, target blank.]</rwdl:Transformation>
    <rwdl:Source>
      <rwdl:Coordinate storage="FILESYSTEM" structure="TABULAR">
        <rwdl:URI>./nationwidechildrens_org_clinical_patient_brca.txt</rwdl:URI>
        <rwdl:RowKey column="bcr_patient_barcode">TCGA-A1-A0SN</rwdl:RowKey>
        <rwdl:ColumnName>initial_pathologic_dx_year</rwdl:ColumnName>
        <rwdl:SourceValue>2007</rwdl:SourceValue>
        <rwdl:Format>TSV</rwdl:Format>
      </rwdl:Coordinate>
    </rwdl:Source>
    <rwdl:Target>
      <rwdl:Coordinate storage="FILESYSTEM" structure="TABULAR">
        <rwdl:URI>./MH.txt</rwdl:URI>
        <rwdl:RowIndex>7</rwdl:RowIndex>
        <rwdl:ColumnName>MHSTTPT</rwdl:ColumnName>
        <rwdl:TargetValue />
        <rwdl:Format>TSV</rwdl:Format>
      </rwdl:Coordinate>
    </rwdl:Target>
  </rwdl:MapID>
  <rwdl:MapID uuid="8875c425-d1a3-5864-ba26-2e3eb5c4630b">
    <rwdl:Transformation type="Direct Map">Direct copy of bcr_patient_barcode.</rwdl:Transformation>
    <rwdl:Source>
      <rwdl:Coordinate storage="FILESYSTEM" structure="TABULAR">
        <rwdl:URI>./nationwidechildrens_org_clinical_patient_brca.txt</rwdl:URI>
        <rwdl:RowKey column="bcr_patient_barcode">TCGA-A1-A0SP</rwdl:RowKey>
        <rwdl:ColumnName>bcr_patient_barcode</rwdl:ColumnName>
        <rwdl:SourceValue />
        <rwdl:Format>TSV</rwdl:Format>
      </rwdl:Coordinate>
    </rwdl:Source>
    <rwdl:Target>
      <rwdl:Coordinate storage="FILESYSTEM" structure="TABULAR">
        <rwdl:URI>./MH.txt</rwdl:URI>
        <rwdl:RowIndex>8</rwdl:RowIndex>
        <rwdl:ColumnName>USUBJID</rwdl:ColumnName>
        <rwdl:TargetValue>TCGA-A1-A0SP</rwdl:TargetValue>
        <rwdl:Format>TSV</rwdl:Format>
      </rwdl:Coordinate>
    </rwdl:Target>
  </rwdl:MapID>
  <rwdl:MapID uuid="5ec25b07-8428-5cc8-8a0b-748a7327ec2f" MethodDefOID="MT.COMBINED.MHTERM">
    <rwdl:Transformation type="Conditional Concat">Conditional concat. See MT.COMBINED.MHTERM.</rwdl:Transformation>
    <rwdl:Source>
      <rwdl:Coordinate storage="FILESYSTEM" structure="TABULAR">
        <rwdl:URI>./nationwidechildrens_org_clinical_patient_brca.txt</rwdl:URI>
        <rwdl:RowKey column="bcr_patient_barcode">TCGA-A1-A0SP</rwdl:RowKey>
        <rwdl:ColumnName>histological_type</rwdl:ColumnName>
        <rwdl:SourceValue>Infiltrating Ductal Carcinoma</rwdl:SourceValue>
        <rwdl:Format>TSV</rwdl:Format>
      </rwdl:Coordinate>
    </rwdl:Source>
    <rwdl:Target>
      <rwdl:Coordinate storage="FILESYSTEM" structure="TABULAR">
        <rwdl:URI>./MH.txt</rwdl:URI>
        <rwdl:RowIndex>8</rwdl:RowIndex>
        <rwdl:ColumnName>MHTERM</rwdl:ColumnName>
        <rwdl:TargetValue>Infiltrating Ductal Carcinoma</rwdl:TargetValue>
        <rwdl:Format>TSV</rwdl:Format>
      </rwdl:Coordinate>
    </rwdl:Target>
  </rwdl:MapID>
  <rwdl:MapID uuid="309592c8-c2ec-5c6b-afa3-80009cc0d9e1" MethodDefOID="MT.COMBINED.MHDECOD">
    <rwdl:Transformation type="Lookup">ICD-O-3 code to text via lookup. See MT.COMBINED.MHDECOD.</rwdl:Transformation>
    <rwdl:Source>
      <rwdl:Coordinate storage="FILESYSTEM" structure="TABULAR">
        <rwdl:URI>./nationwidechildrens_org_clinical_patient_brca.txt</rwdl:URI>
        <rwdl:RowKey column="bcr_patient_barcode">TCGA-A1-A0SP</rwdl:RowKey>
        <rwdl:ColumnName>icd_o_3_histology</rwdl:ColumnName>
        <rwdl:SourceValue>8500/3</rwdl:SourceValue>
        <rwdl:Format>TSV</rwdl:Format>
      </rwdl:Coordinate>
    </rwdl:Source>
    <rwdl:Target>
      <rwdl:Coordinate storage="FILESYSTEM" structure="TABULAR">
        <rwdl:URI>./MH.txt</rwdl:URI>
        <rwdl:RowIndex>8</rwdl:RowIndex>
        <rwdl:ColumnName>MHDECOD</rwdl:ColumnName>
        <rwdl:TargetValue>Infiltrating duct carcinoma, NOS</rwdl:TargetValue>
        <rwdl:Format>TSV</rwdl:Format>
      </rwdl:Coordinate>
    </rwdl:Target>
  </rwdl:MapID>
  <rwdl:MapID uuid="16acb6e3-a1cf-5629-acdf-39cd82edfe09" MethodDefOID="MT.COMBINED.MHSTDTC">
    <rwdl:Transformation type="ISO8601 Year or Blank">Year-only ISO8601; blank if '[Not Available]'.</rwdl:Transformation>
    <rwdl:Source>
      <rwdl:Coordinate storage="FILESYSTEM" structure="TABULAR">
        <rwdl:URI>./nationwidechildrens_org_clinical_patient_brca.txt</rwdl:URI>
        <rwdl:RowKey column="bcr_patient_barcode">TCGA-A1-A0SP</rwdl:RowKey>
        <rwdl:ColumnName>initial_pathologic_dx_year</rwdl:ColumnName>
        <rwdl:SourceValue>2007</rwdl:SourceValue>
        <rwdl:Format>TSV</rwdl:Format>
      </rwdl:Coordinate>
    </rwdl:Source>
    <rwdl:Target>
      <rwdl:Coordinate storage="FILESYSTEM" structure="TABULAR">
        <rwdl:URI>./MH.txt</rwdl:URI>
        <rwdl:RowIndex>8</rwdl:RowIndex>
        <rwdl:ColumnName>MHSTDTC</rwdl:ColumnName>
        <rwdl:TargetValue>2007</rwdl:TargetValue>
        <rwdl:Format>TSV</rwdl:Format>
      </rwdl:Coordinate>
    </rwdl:Target>
  </rwdl:MapID>
  <rwdl:MapID uuid="b00ccf46-a59d-590c-a5c0-7ea0aab9dde6" MethodDefOID="MT.COMBINED.MHDTC">
    <rwdl:Transformation type="ISO8601 Conversion">YYYY-M-D to zero-padded YYYY-MM-DD.</rwdl:Transformation>
    <rwdl:Source>
      <rwdl:Coordinate storage="FILESYSTEM" structure="TABULAR">
        <rwdl:URI>./nationwidechildrens_org_clinical_patient_brca.txt</rwdl:URI>
        <rwdl:RowKey column="bcr_patient_barcode">TCGA-A1-A0SP</rwdl:RowKey>
        <rwdl:ColumnName>form_completion_date</rwdl:ColumnName>
        <rwdl:SourceValue>2010-12-6</rwdl:SourceValue>
        <rwdl:Format>TSV</rwdl:Format>
      </rwdl:Coordinate>
    </rwdl:Source>
    <rwdl:Target>
      <rwdl:Coordinate storage="FILESYSTEM" structure="TABULAR">
        <rwdl:URI>./MH.txt</rwdl:URI>
        <rwdl:RowIndex>8</rwdl:RowIndex>
        <rwdl:ColumnName>MHDTC</rwdl:ColumnName>
        <rwdl:TargetValue>2010-12-06</rwdl:TargetValue>
        <rwdl:Format>TSV</rwdl:Format>
      </rwdl:Coordinate>
    </rwdl:Target>
  </rwdl:MapID>
  <rwdl:MapID uuid="4ebf0b74-9f0b-5201-ada4-d9cf1201dc14" MethodDefOID="MT.MHSTDY.DAYSPLUS1">
    <rwdl:Transformation type="Derivation">MHSTDY = source + 1.</rwdl:Transformation>
    <rwdl:Source>
      <rwdl:Coordinate storage="FILESYSTEM" structure="TABULAR">
        <rwdl:URI>./nationwidechildrens_org_clinical_patient_brca.txt</rwdl:URI>
        <rwdl:RowKey column="bcr_patient_barcode">TCGA-A1-A0SP</rwdl:RowKey>
        <rwdl:ColumnName>days_to_initial_pathologic_diagnosis</rwdl:ColumnName>
        <rwdl:SourceValue>0</rwdl:SourceValue>
        <rwdl:Format>TSV</rwdl:Format>
      </rwdl:Coordinate>
    </rwdl:Source>
    <rwdl:Target>
      <rwdl:Coordinate storage="FILESYSTEM" structure="TABULAR">
        <rwdl:URI>./MH.txt</rwdl:URI>
        <rwdl:RowIndex>8</rwdl:RowIndex>
        <rwdl:ColumnName>MHSTDY</rwdl:ColumnName>
        <rwdl:TargetValue>1</rwdl:TargetValue>
        <rwdl:Format>TSV</rwdl:Format>
      </rwdl:Coordinate>
    </rwdl:Target>
  </rwdl:MapID>
  <rwdl:MapID uuid="d01a9593-41f0-512d-96bf-98c57731c1d2" MethodDefOID="MT.MHSTRTPT.CONDITIONAL">
    <rwdl:Transformation type="Conditional Assign">Populated 'BEFORE' iff source == '[Not Available]'. [Source '2007' — not triggered, target blank.]</rwdl:Transformation>
    <rwdl:Source>
      <rwdl:Coordinate storage="FILESYSTEM" structure="TABULAR">
        <rwdl:URI>./nationwidechildrens_org_clinical_patient_brca.txt</rwdl:URI>
        <rwdl:RowKey column="bcr_patient_barcode">TCGA-A1-A0SP</rwdl:RowKey>
        <rwdl:ColumnName>initial_pathologic_dx_year</rwdl:ColumnName>
        <rwdl:SourceValue>2007</rwdl:SourceValue>
        <rwdl:Format>TSV</rwdl:Format>
      </rwdl:Coordinate>
    </rwdl:Source>
    <rwdl:Target>
      <rwdl:Coordinate storage="FILESYSTEM" structure="TABULAR">
        <rwdl:URI>./MH.txt</rwdl:URI>
        <rwdl:RowIndex>8</rwdl:RowIndex>
        <rwdl:ColumnName>MHSTRTPT</rwdl:ColumnName>
        <rwdl:TargetValue />
        <rwdl:Format>TSV</rwdl:Format>
      </rwdl:Coordinate>
    </rwdl:Target>
  </rwdl:MapID>
  <rwdl:MapID uuid="14a0abe6-5f65-5fcf-8466-c3cd9a866331" MethodDefOID="MT.MHSTRTPT.CONDITIONAL">
    <rwdl:Transformation type="Conditional Assign">Populated 'SCREENING' iff source == '[Not Available]'. [Source '2007' — not triggered, target blank.]</rwdl:Transformation>
    <rwdl:Source>
      <rwdl:Coordinate storage="FILESYSTEM" structure="TABULAR">
        <rwdl:URI>./nationwidechildrens_org_clinical_patient_brca.txt</rwdl:URI>
        <rwdl:RowKey column="bcr_patient_barcode">TCGA-A1-A0SP</rwdl:RowKey>
        <rwdl:ColumnName>initial_pathologic_dx_year</rwdl:ColumnName>
        <rwdl:SourceValue>2007</rwdl:SourceValue>
        <rwdl:Format>TSV</rwdl:Format>
      </rwdl:Coordinate>
    </rwdl:Source>
    <rwdl:Target>
      <rwdl:Coordinate storage="FILESYSTEM" structure="TABULAR">
        <rwdl:URI>./MH.txt</rwdl:URI>
        <rwdl:RowIndex>8</rwdl:RowIndex>
        <rwdl:ColumnName>MHSTTPT</rwdl:ColumnName>
        <rwdl:TargetValue />
        <rwdl:Format>TSV</rwdl:Format>
      </rwdl:Coordinate>
    </rwdl:Target>
  </rwdl:MapID>
  <rwdl:MapID uuid="20ee760c-6416-59af-af47-9260ea3d49f6">
    <rwdl:Transformation type="Direct Map">Direct copy of bcr_patient_barcode.</rwdl:Transformation>
    <rwdl:Source>
      <rwdl:Coordinate storage="FILESYSTEM" structure="TABULAR">
        <rwdl:URI>./nationwidechildrens_org_clinical_patient_brca.txt</rwdl:URI>
        <rwdl:RowKey column="bcr_patient_barcode">TCGA-A1-A0SQ</rwdl:RowKey>
        <rwdl:ColumnName>bcr_patient_barcode</rwdl:ColumnName>
        <rwdl:SourceValue />
        <rwdl:Format>TSV</rwdl:Format>
      </rwdl:Coordinate>
    </rwdl:Source>
    <rwdl:Target>
      <rwdl:Coordinate storage="FILESYSTEM" structure="TABULAR">
        <rwdl:URI>./MH.txt</rwdl:URI>
        <rwdl:RowIndex>9</rwdl:RowIndex>
        <rwdl:ColumnName>USUBJID</rwdl:ColumnName>
        <rwdl:TargetValue>TCGA-A1-A0SQ</rwdl:TargetValue>
        <rwdl:Format>TSV</rwdl:Format>
      </rwdl:Coordinate>
    </rwdl:Target>
  </rwdl:MapID>
  <rwdl:MapID uuid="e7544137-dd9d-50bf-b672-6b3a5ad792da" MethodDefOID="MT.COMBINED.MHTERM">
    <rwdl:Transformation type="Conditional Concat">Conditional concat. See MT.COMBINED.MHTERM.</rwdl:Transformation>
    <rwdl:Source>
      <rwdl:Coordinate storage="FILESYSTEM" structure="TABULAR">
        <rwdl:URI>./nationwidechildrens_org_clinical_patient_brca.txt</rwdl:URI>
        <rwdl:RowKey column="bcr_patient_barcode">TCGA-A1-A0SQ</rwdl:RowKey>
        <rwdl:ColumnName>histological_type</rwdl:ColumnName>
        <rwdl:SourceValue>Infiltrating Ductal Carcinoma</rwdl:SourceValue>
        <rwdl:Format>TSV</rwdl:Format>
      </rwdl:Coordinate>
    </rwdl:Source>
    <rwdl:Target>
      <rwdl:Coordinate storage="FILESYSTEM" structure="TABULAR">
        <rwdl:URI>./MH.txt</rwdl:URI>
        <rwdl:RowIndex>9</rwdl:RowIndex>
        <rwdl:ColumnName>MHTERM</rwdl:ColumnName>
        <rwdl:TargetValue>Infiltrating Ductal Carcinoma</rwdl:TargetValue>
        <rwdl:Format>TSV</rwdl:Format>
      </rwdl:Coordinate>
    </rwdl:Target>
  </rwdl:MapID>
  <rwdl:MapID uuid="ff534fe3-9f3c-5a31-9234-7e624caf2a6e" MethodDefOID="MT.COMBINED.MHDECOD">
    <rwdl:Transformation type="Lookup">ICD-O-3 code to text via lookup. See MT.COMBINED.MHDECOD.</rwdl:Transformation>
    <rwdl:Source>
      <rwdl:Coordinate storage="FILESYSTEM" structure="TABULAR">
        <rwdl:URI>./nationwidechildrens_org_clinical_patient_brca.txt</rwdl:URI>
        <rwdl:RowKey column="bcr_patient_barcode">TCGA-A1-A0SQ</rwdl:RowKey>
        <rwdl:ColumnName>icd_o_3_histology</rwdl:ColumnName>
        <rwdl:SourceValue>8500/3</rwdl:SourceValue>
        <rwdl:Format>TSV</rwdl:Format>
      </rwdl:Coordinate>
    </rwdl:Source>
    <rwdl:Target>
      <rwdl:Coordinate storage="FILESYSTEM" structure="TABULAR">
        <rwdl:URI>./MH.txt</rwdl:URI>
        <rwdl:RowIndex>9</rwdl:RowIndex>
        <rwdl:ColumnName>MHDECOD</rwdl:ColumnName>
        <rwdl:TargetValue>Infiltrating duct carcinoma, NOS</rwdl:TargetValue>
        <rwdl:Format>TSV</rwdl:Format>
      </rwdl:Coordinate>
    </rwdl:Target>
  </rwdl:MapID>
  <rwdl:MapID uuid="6c34e399-ac68-52fa-88a3-a20a27994ed6" MethodDefOID="MT.COMBINED.MHSTDTC">
    <rwdl:Transformation type="ISO8601 Year or Blank">Year-only ISO8601; blank if '[Not Available]'.</rwdl:Transformation>
    <rwdl:Source>
      <rwdl:Coordinate storage="FILESYSTEM" structure="TABULAR">
        <rwdl:URI>./nationwidechildrens_org_clinical_patient_brca.txt</rwdl:URI>
        <rwdl:RowKey column="bcr_patient_barcode">TCGA-A1-A0SQ</rwdl:RowKey>
        <rwdl:ColumnName>initial_pathologic_dx_year</rwdl:ColumnName>
        <rwdl:SourceValue>2007</rwdl:SourceValue>
        <rwdl:Format>TSV</rwdl:Format>
      </rwdl:Coordinate>
    </rwdl:Source>
    <rwdl:Target>
      <rwdl:Coordinate storage="FILESYSTEM" structure="TABULAR">
        <rwdl:URI>./MH.txt</rwdl:URI>
        <rwdl:RowIndex>9</rwdl:RowIndex>
        <rwdl:ColumnName>MHSTDTC</rwdl:ColumnName>
        <rwdl:TargetValue>2007</rwdl:TargetValue>
        <rwdl:Format>TSV</rwdl:Format>
      </rwdl:Coordinate>
    </rwdl:Target>
  </rwdl:MapID>
  <rwdl:MapID uuid="3dbc3100-22d9-5cfb-b928-0c6a546b0f9a" MethodDefOID="MT.COMBINED.MHDTC">
    <rwdl:Transformation type="ISO8601 Conversion">YYYY-M-D to zero-padded YYYY-MM-DD.</rwdl:Transformation>
    <rwdl:Source>
      <rwdl:Coordinate storage="FILESYSTEM" structure="TABULAR">
        <rwdl:URI>./nationwidechildrens_org_clinical_patient_brca.txt</rwdl:URI>
        <rwdl:RowKey column="bcr_patient_barcode">TCGA-A1-A0SQ</rwdl:RowKey>
        <rwdl:ColumnName>form_completion_date</rwdl:ColumnName>
        <rwdl:SourceValue>2011-6-30</rwdl:SourceValue>
        <rwdl:Format>TSV</rwdl:Format>
      </rwdl:Coordinate>
    </rwdl:Source>
    <rwdl:Target>
      <rwdl:Coordinate storage="FILESYSTEM" structure="TABULAR">
        <rwdl:URI>./MH.txt</rwdl:URI>
        <rwdl:RowIndex>9</rwdl:RowIndex>
        <rwdl:ColumnName>MHDTC</rwdl:ColumnName>
        <rwdl:TargetValue>2011-06-30</rwdl:TargetValue>
        <rwdl:Format>TSV</rwdl:Format>
      </rwdl:Coordinate>
    </rwdl:Target>
  </rwdl:MapID>
  <rwdl:MapID uuid="e09fe425-20c6-5877-b8c0-6bda2a5c7e42" MethodDefOID="MT.MHSTDY.DAYSPLUS1">
    <rwdl:Transformation type="Derivation">MHSTDY = source + 1.</rwdl:Transformation>
    <rwdl:Source>
      <rwdl:Coordinate storage="FILESYSTEM" structure="TABULAR">
        <rwdl:URI>./nationwidechildrens_org_clinical_patient_brca.txt</rwdl:URI>
        <rwdl:RowKey column="bcr_patient_barcode">TCGA-A1-A0SQ</rwdl:RowKey>
        <rwdl:ColumnName>days_to_initial_pathologic_diagnosis</rwdl:ColumnName>
        <rwdl:SourceValue>0</rwdl:SourceValue>
        <rwdl:Format>TSV</rwdl:Format>
      </rwdl:Coordinate>
    </rwdl:Source>
    <rwdl:Target>
      <rwdl:Coordinate storage="FILESYSTEM" structure="TABULAR">
        <rwdl:URI>./MH.txt</rwdl:URI>
        <rwdl:RowIndex>9</rwdl:RowIndex>
        <rwdl:ColumnName>MHSTDY</rwdl:ColumnName>
        <rwdl:TargetValue>1</rwdl:TargetValue>
        <rwdl:Format>TSV</rwdl:Format>
      </rwdl:Coordinate>
    </rwdl:Target>
  </rwdl:MapID>
  <rwdl:MapID uuid="c85d91a0-3bd9-5199-8bc8-bb4024fda216" MethodDefOID="MT.MHSTRTPT.CONDITIONAL">
    <rwdl:Transformation type="Conditional Assign">Populated 'BEFORE' iff source == '[Not Available]'. [Source '2007' — not triggered, target blank.]</rwdl:Transformation>
    <rwdl:Source>
      <rwdl:Coordinate storage="FILESYSTEM" structure="TABULAR">
        <rwdl:URI>./nationwidechildrens_org_clinical_patient_brca.txt</rwdl:URI>
        <rwdl:RowKey column="bcr_patient_barcode">TCGA-A1-A0SQ</rwdl:RowKey>
        <rwdl:ColumnName>initial_pathologic_dx_year</rwdl:ColumnName>
        <rwdl:SourceValue>2007</rwdl:SourceValue>
        <rwdl:Format>TSV</rwdl:Format>
      </rwdl:Coordinate>
    </rwdl:Source>
    <rwdl:Target>
      <rwdl:Coordinate storage="FILESYSTEM" structure="TABULAR">
        <rwdl:URI>./MH.txt</rwdl:URI>
        <rwdl:RowIndex>9</rwdl:RowIndex>
        <rwdl:ColumnName>MHSTRTPT</rwdl:ColumnName>
        <rwdl:TargetValue />
        <rwdl:Format>TSV</rwdl:Format>
      </rwdl:Coordinate>
    </rwdl:Target>
  </rwdl:MapID>
  <rwdl:MapID uuid="4ef54e0f-fdab-541d-8b37-38dc53e0c506" MethodDefOID="MT.MHSTRTPT.CONDITIONAL">
    <rwdl:Transformation type="Conditional Assign">Populated 'SCREENING' iff source == '[Not Available]'. [Source '2007' — not triggered, target blank.]</rwdl:Transformation>
    <rwdl:Source>
      <rwdl:Coordinate storage="FILESYSTEM" structure="TABULAR">
        <rwdl:URI>./nationwidechildrens_org_clinical_patient_brca.txt</rwdl:URI>
        <rwdl:RowKey column="bcr_patient_barcode">TCGA-A1-A0SQ</rwdl:RowKey>
        <rwdl:ColumnName>initial_pathologic_dx_year</rwdl:ColumnName>
        <rwdl:SourceValue>2007</rwdl:SourceValue>
        <rwdl:Format>TSV</rwdl:Format>
      </rwdl:Coordinate>
    </rwdl:Source>
    <rwdl:Target>
      <rwdl:Coordinate storage="FILESYSTEM" structure="TABULAR">
        <rwdl:URI>./MH.txt</rwdl:URI>
        <rwdl:RowIndex>9</rwdl:RowIndex>
        <rwdl:ColumnName>MHSTTPT</rwdl:ColumnName>
        <rwdl:TargetValue />
        <rwdl:Format>TSV</rwdl:Format>
      </rwdl:Coordinate>
    </rwdl:Target>
  </rwdl:MapID>
  <rwdl:MapID uuid="91d3de22-89b7-5a75-ad0b-35cb82d40110">
    <rwdl:Transformation type="Direct Map">Direct copy of bcr_patient_barcode.</rwdl:Transformation>
    <rwdl:Source>
      <rwdl:Coordinate storage="FILESYSTEM" structure="TABULAR">
        <rwdl:URI>./nationwidechildrens_org_clinical_patient_brca.txt</rwdl:URI>
        <rwdl:RowKey column="bcr_patient_barcode">TCGA-A2-A04P</rwdl:RowKey>
        <rwdl:ColumnName>bcr_patient_barcode</rwdl:ColumnName>
        <rwdl:SourceValue />
        <rwdl:Format>TSV</rwdl:Format>
      </rwdl:Coordinate>
    </rwdl:Source>
    <rwdl:Target>
      <rwdl:Coordinate storage="FILESYSTEM" structure="TABULAR">
        <rwdl:URI>./MH.txt</rwdl:URI>
        <rwdl:RowIndex>10</rwdl:RowIndex>
        <rwdl:ColumnName>USUBJID</rwdl:ColumnName>
        <rwdl:TargetValue>TCGA-A2-A04P</rwdl:TargetValue>
        <rwdl:Format>TSV</rwdl:Format>
      </rwdl:Coordinate>
    </rwdl:Target>
  </rwdl:MapID>
  <rwdl:MapID uuid="bf9fea6d-aa55-5feb-b554-65d2a69b8f42" MethodDefOID="MT.COMBINED.MHTERM">
    <rwdl:Transformation type="Conditional Concat">Conditional concat. See MT.COMBINED.MHTERM.</rwdl:Transformation>
    <rwdl:Source>
      <rwdl:Coordinate storage="FILESYSTEM" structure="TABULAR">
        <rwdl:URI>./nationwidechildrens_org_clinical_patient_brca.txt</rwdl:URI>
        <rwdl:RowKey column="bcr_patient_barcode">TCGA-A2-A04P</rwdl:RowKey>
        <rwdl:ColumnName>histological_type</rwdl:ColumnName>
        <rwdl:SourceValue>Infiltrating Ductal Carcinoma</rwdl:SourceValue>
        <rwdl:Format>TSV</rwdl:Format>
      </rwdl:Coordinate>
    </rwdl:Source>
    <rwdl:Target>
      <rwdl:Coordinate storage="FILESYSTEM" structure="TABULAR">
        <rwdl:URI>./MH.txt</rwdl:URI>
        <rwdl:RowIndex>10</rwdl:RowIndex>
        <rwdl:ColumnName>MHTERM</rwdl:ColumnName>
        <rwdl:TargetValue>Infiltrating Ductal Carcinoma</rwdl:TargetValue>
        <rwdl:Format>TSV</rwdl:Format>
      </rwdl:Coordinate>
    </rwdl:Target>
  </rwdl:MapID>
  <rwdl:MapID uuid="06452aae-356b-5011-90ef-18526b9f5ef0" MethodDefOID="MT.COMBINED.MHDECOD">
    <rwdl:Transformation type="Lookup">ICD-O-3 code to text via lookup. See MT.COMBINED.MHDECOD.</rwdl:Transformation>
    <rwdl:Source>
      <rwdl:Coordinate storage="FILESYSTEM" structure="TABULAR">
        <rwdl:URI>./nationwidechildrens_org_clinical_patient_brca.txt</rwdl:URI>
        <rwdl:RowKey column="bcr_patient_barcode">TCGA-A2-A04P</rwdl:RowKey>
        <rwdl:ColumnName>icd_o_3_histology</rwdl:ColumnName>
        <rwdl:SourceValue>8500/3</rwdl:SourceValue>
        <rwdl:Format>TSV</rwdl:Format>
      </rwdl:Coordinate>
    </rwdl:Source>
    <rwdl:Target>
      <rwdl:Coordinate storage="FILESYSTEM" structure="TABULAR">
        <rwdl:URI>./MH.txt</rwdl:URI>
        <rwdl:RowIndex>10</rwdl:RowIndex>
        <rwdl:ColumnName>MHDECOD</rwdl:ColumnName>
        <rwdl:TargetValue>Infiltrating duct carcinoma, NOS</rwdl:TargetValue>
        <rwdl:Format>TSV</rwdl:Format>
      </rwdl:Coordinate>
    </rwdl:Target>
  </rwdl:MapID>
  <rwdl:MapID uuid="5beb8227-e018-5675-b266-8e5db14bf2ca" MethodDefOID="MT.COMBINED.MHSTDTC">
    <rwdl:Transformation type="ISO8601 Year or Blank">Year-only ISO8601; blank if '[Not Available]'.</rwdl:Transformation>
    <rwdl:Source>
      <rwdl:Coordinate storage="FILESYSTEM" structure="TABULAR">
        <rwdl:URI>./nationwidechildrens_org_clinical_patient_brca.txt</rwdl:URI>
        <rwdl:RowKey column="bcr_patient_barcode">TCGA-A2-A04P</rwdl:RowKey>
        <rwdl:ColumnName>initial_pathologic_dx_year</rwdl:ColumnName>
        <rwdl:SourceValue>2003</rwdl:SourceValue>
        <rwdl:Format>TSV</rwdl:Format>
      </rwdl:Coordinate>
    </rwdl:Source>
    <rwdl:Target>
      <rwdl:Coordinate storage="FILESYSTEM" structure="TABULAR">
        <rwdl:URI>./MH.txt</rwdl:URI>
        <rwdl:RowIndex>10</rwdl:RowIndex>
        <rwdl:ColumnName>MHSTDTC</rwdl:ColumnName>
        <rwdl:TargetValue>2003</rwdl:TargetValue>
        <rwdl:Format>TSV</rwdl:Format>
      </rwdl:Coordinate>
    </rwdl:Target>
  </rwdl:MapID>
  <rwdl:MapID uuid="b02f54da-b2aa-565b-995f-6206f73a717b" MethodDefOID="MT.COMBINED.MHDTC">
    <rwdl:Transformation type="ISO8601 Conversion">YYYY-M-D to zero-padded YYYY-MM-DD.</rwdl:Transformation>
    <rwdl:Source>
      <rwdl:Coordinate storage="FILESYSTEM" structure="TABULAR">
        <rwdl:URI>./nationwidechildrens_org_clinical_patient_brca.txt</rwdl:URI>
        <rwdl:RowKey column="bcr_patient_barcode">TCGA-A2-A04P</rwdl:RowKey>
        <rwdl:ColumnName>form_completion_date</rwdl:ColumnName>
        <rwdl:SourceValue>2010-8-26</rwdl:SourceValue>
        <rwdl:Format>TSV</rwdl:Format>
      </rwdl:Coordinate>
    </rwdl:Source>
    <rwdl:Target>
      <rwdl:Coordinate storage="FILESYSTEM" structure="TABULAR">
        <rwdl:URI>./MH.txt</rwdl:URI>
        <rwdl:RowIndex>10</rwdl:RowIndex>
        <rwdl:ColumnName>MHDTC</rwdl:ColumnName>
        <rwdl:TargetValue>2010-08-26</rwdl:TargetValue>
        <rwdl:Format>TSV</rwdl:Format>
      </rwdl:Coordinate>
    </rwdl:Target>
  </rwdl:MapID>
  <rwdl:MapID uuid="7dfb0d9d-8360-5f5a-af87-ef16426ccefb" MethodDefOID="MT.MHSTDY.DAYSPLUS1">
    <rwdl:Transformation type="Derivation">MHSTDY = source + 1.</rwdl:Transformation>
    <rwdl:Source>
      <rwdl:Coordinate storage="FILESYSTEM" structure="TABULAR">
        <rwdl:URI>./nationwidechildrens_org_clinical_patient_brca.txt</rwdl:URI>
        <rwdl:RowKey column="bcr_patient_barcode">TCGA-A2-A04P</rwdl:RowKey>
        <rwdl:ColumnName>days_to_initial_pathologic_diagnosis</rwdl:ColumnName>
        <rwdl:SourceValue>0</rwdl:SourceValue>
        <rwdl:Format>TSV</rwdl:Format>
      </rwdl:Coordinate>
    </rwdl:Source>
    <rwdl:Target>
      <rwdl:Coordinate storage="FILESYSTEM" structure="TABULAR">
        <rwdl:URI>./MH.txt</rwdl:URI>
        <rwdl:RowIndex>10</rwdl:RowIndex>
        <rwdl:ColumnName>MHSTDY</rwdl:ColumnName>
        <rwdl:TargetValue>1</rwdl:TargetValue>
        <rwdl:Format>TSV</rwdl:Format>
      </rwdl:Coordinate>
    </rwdl:Target>
  </rwdl:MapID>
  <rwdl:MapID uuid="0a59660b-9e46-5f56-ba58-a064d54fffcc" MethodDefOID="MT.MHSTRTPT.CONDITIONAL">
    <rwdl:Transformation type="Conditional Assign">Populated 'BEFORE' iff source == '[Not Available]'. [Source '2003' — not triggered, target blank.]</rwdl:Transformation>
    <rwdl:Source>
      <rwdl:Coordinate storage="FILESYSTEM" structure="TABULAR">
        <rwdl:URI>./nationwidechildrens_org_clinical_patient_brca.txt</rwdl:URI>
        <rwdl:RowKey column="bcr_patient_barcode">TCGA-A2-A04P</rwdl:RowKey>
        <rwdl:ColumnName>initial_pathologic_dx_year</rwdl:ColumnName>
        <rwdl:SourceValue>2003</rwdl:SourceValue>
        <rwdl:Format>TSV</rwdl:Format>
      </rwdl:Coordinate>
    </rwdl:Source>
    <rwdl:Target>
      <rwdl:Coordinate storage="FILESYSTEM" structure="TABULAR">
        <rwdl:URI>./MH.txt</rwdl:URI>
        <rwdl:RowIndex>10</rwdl:RowIndex>
        <rwdl:ColumnName>MHSTRTPT</rwdl:ColumnName>
        <rwdl:TargetValue />
        <rwdl:Format>TSV</rwdl:Format>
      </rwdl:Coordinate>
    </rwdl:Target>
  </rwdl:MapID>
  <rwdl:MapID uuid="ec3c175b-2b42-53e6-b4a4-c4327abd81a6" MethodDefOID="MT.MHSTRTPT.CONDITIONAL">
    <rwdl:Transformation type="Conditional Assign">Populated 'SCREENING' iff source == '[Not Available]'. [Source '2003' — not triggered, target blank.]</rwdl:Transformation>
    <rwdl:Source>
      <rwdl:Coordinate storage="FILESYSTEM" structure="TABULAR">
        <rwdl:URI>./nationwidechildrens_org_clinical_patient_brca.txt</rwdl:URI>
        <rwdl:RowKey column="bcr_patient_barcode">TCGA-A2-A04P</rwdl:RowKey>
        <rwdl:ColumnName>initial_pathologic_dx_year</rwdl:ColumnName>
        <rwdl:SourceValue>2003</rwdl:SourceValue>
        <rwdl:Format>TSV</rwdl:Format>
      </rwdl:Coordinate>
    </rwdl:Source>
    <rwdl:Target>
      <rwdl:Coordinate storage="FILESYSTEM" structure="TABULAR">
        <rwdl:URI>./MH.txt</rwdl:URI>
        <rwdl:RowIndex>10</rwdl:RowIndex>
        <rwdl:ColumnName>MHSTTPT</rwdl:ColumnName>
        <rwdl:TargetValue />
        <rwdl:Format>TSV</rwdl:Format>
      </rwdl:Coordinate>
    </rwdl:Target>
  </rwdl:MapID>
  <rwdl:MapID uuid="1a5dd41b-7ee2-551f-807b-ed876b70e6c3">
    <rwdl:Transformation type="Direct Map">Direct copy of bcr_patient_barcode.</rwdl:Transformation>
    <rwdl:Source>
      <rwdl:Coordinate storage="FILESYSTEM" structure="TABULAR">
        <rwdl:URI>./nationwidechildrens_org_clinical_patient_brca.txt</rwdl:URI>
        <rwdl:RowKey column="bcr_patient_barcode">TCGA-A2-A04Q</rwdl:RowKey>
        <rwdl:ColumnName>bcr_patient_barcode</rwdl:ColumnName>
        <rwdl:SourceValue />
        <rwdl:Format>TSV</rwdl:Format>
      </rwdl:Coordinate>
    </rwdl:Source>
    <rwdl:Target>
      <rwdl:Coordinate storage="FILESYSTEM" structure="TABULAR">
        <rwdl:URI>./MH.txt</rwdl:URI>
        <rwdl:RowIndex>11</rwdl:RowIndex>
        <rwdl:ColumnName>USUBJID</rwdl:ColumnName>
        <rwdl:TargetValue>TCGA-A2-A04Q</rwdl:TargetValue>
        <rwdl:Format>TSV</rwdl:Format>
      </rwdl:Coordinate>
    </rwdl:Target>
  </rwdl:MapID>
  <rwdl:MapID uuid="d75fec9a-ccb9-58fd-8eaa-f42f5753a51a" MethodDefOID="MT.COMBINED.MHTERM">
    <rwdl:Transformation type="Conditional Concat">Conditional concat. See MT.COMBINED.MHTERM.</rwdl:Transformation>
    <rwdl:Source>
      <rwdl:Coordinate storage="FILESYSTEM" structure="TABULAR">
        <rwdl:URI>./nationwidechildrens_org_clinical_patient_brca.txt</rwdl:URI>
        <rwdl:RowKey column="bcr_patient_barcode">TCGA-A2-A04Q</rwdl:RowKey>
        <rwdl:ColumnName>histological_type</rwdl:ColumnName>
        <rwdl:SourceValue>Infiltrating Ductal Carcinoma</rwdl:SourceValue>
        <rwdl:Format>TSV</rwdl:Format>
      </rwdl:Coordinate>
    </rwdl:Source>
    <rwdl:Target>
      <rwdl:Coordinate storage="FILESYSTEM" structure="TABULAR">
        <rwdl:URI>./MH.txt</rwdl:URI>
        <rwdl:RowIndex>11</rwdl:RowIndex>
        <rwdl:ColumnName>MHTERM</rwdl:ColumnName>
        <rwdl:TargetValue>Infiltrating Ductal Carcinoma</rwdl:TargetValue>
        <rwdl:Format>TSV</rwdl:Format>
      </rwdl:Coordinate>
    </rwdl:Target>
  </rwdl:MapID>
  <rwdl:MapID uuid="f79daaf2-c3f9-555c-a372-f99db27c6f3c" MethodDefOID="MT.COMBINED.MHDECOD">
    <rwdl:Transformation type="Lookup">ICD-O-3 code to text via lookup. See MT.COMBINED.MHDECOD.</rwdl:Transformation>
    <rwdl:Source>
      <rwdl:Coordinate storage="FILESYSTEM" structure="TABULAR">
        <rwdl:URI>./nationwidechildrens_org_clinical_patient_brca.txt</rwdl:URI>
        <rwdl:RowKey column="bcr_patient_barcode">TCGA-A2-A04Q</rwdl:RowKey>
        <rwdl:ColumnName>icd_o_3_histology</rwdl:ColumnName>
        <rwdl:SourceValue>8500/3</rwdl:SourceValue>
        <rwdl:Format>TSV</rwdl:Format>
      </rwdl:Coordinate>
    </rwdl:Source>
    <rwdl:Target>
      <rwdl:Coordinate storage="FILESYSTEM" structure="TABULAR">
        <rwdl:URI>./MH.txt</rwdl:URI>
        <rwdl:RowIndex>11</rwdl:RowIndex>
        <rwdl:ColumnName>MHDECOD</rwdl:ColumnName>
        <rwdl:TargetValue>Infiltrating duct carcinoma, NOS</rwdl:TargetValue>
        <rwdl:Format>TSV</rwdl:Format>
      </rwdl:Coordinate>
    </rwdl:Target>
  </rwdl:MapID>
  <rwdl:MapID uuid="65a8a188-f4e3-5800-a838-ec608f642462" MethodDefOID="MT.COMBINED.MHSTDTC">
    <rwdl:Transformation type="ISO8601 Year or Blank">Year-only ISO8601; blank if '[Not Available]'.</rwdl:Transformation>
    <rwdl:Source>
      <rwdl:Coordinate storage="FILESYSTEM" structure="TABULAR">
        <rwdl:URI>./nationwidechildrens_org_clinical_patient_brca.txt</rwdl:URI>
        <rwdl:RowKey column="bcr_patient_barcode">TCGA-A2-A04Q</rwdl:RowKey>
        <rwdl:ColumnName>initial_pathologic_dx_year</rwdl:ColumnName>
        <rwdl:SourceValue>2004</rwdl:SourceValue>
        <rwdl:Format>TSV</rwdl:Format>
      </rwdl:Coordinate>
    </rwdl:Source>
    <rwdl:Target>
      <rwdl:Coordinate storage="FILESYSTEM" structure="TABULAR">
        <rwdl:URI>./MH.txt</rwdl:URI>
        <rwdl:RowIndex>11</rwdl:RowIndex>
        <rwdl:ColumnName>MHSTDTC</rwdl:ColumnName>
        <rwdl:TargetValue>2004</rwdl:TargetValue>
        <rwdl:Format>TSV</rwdl:Format>
      </rwdl:Coordinate>
    </rwdl:Target>
  </rwdl:MapID>
  <rwdl:MapID uuid="adb315c2-4b7f-58e8-8ea0-3ad413dcc2fd" MethodDefOID="MT.COMBINED.MHDTC">
    <rwdl:Transformation type="ISO8601 Conversion">YYYY-M-D to zero-padded YYYY-MM-DD.</rwdl:Transformation>
    <rwdl:Source>
      <rwdl:Coordinate storage="FILESYSTEM" structure="TABULAR">
        <rwdl:URI>./nationwidechildrens_org_clinical_patient_brca.txt</rwdl:URI>
        <rwdl:RowKey column="bcr_patient_barcode">TCGA-A2-A04Q</rwdl:RowKey>
        <rwdl:ColumnName>form_completion_date</rwdl:ColumnName>
        <rwdl:SourceValue>2010-8-10</rwdl:SourceValue>
        <rwdl:Format>TSV</rwdl:Format>
      </rwdl:Coordinate>
    </rwdl:Source>
    <rwdl:Target>
      <rwdl:Coordinate storage="FILESYSTEM" structure="TABULAR">
        <rwdl:URI>./MH.txt</rwdl:URI>
        <rwdl:RowIndex>11</rwdl:RowIndex>
        <rwdl:ColumnName>MHDTC</rwdl:ColumnName>
        <rwdl:TargetValue>2010-08-10</rwdl:TargetValue>
        <rwdl:Format>TSV</rwdl:Format>
      </rwdl:Coordinate>
    </rwdl:Target>
  </rwdl:MapID>
  <rwdl:MapID uuid="d638075b-bc5e-5896-b7b5-8fd917864bda" MethodDefOID="MT.MHSTDY.DAYSPLUS1">
    <rwdl:Transformation type="Derivation">MHSTDY = source + 1.</rwdl:Transformation>
    <rwdl:Source>
      <rwdl:Coordinate storage="FILESYSTEM" structure="TABULAR">
        <rwdl:URI>./nationwidechildrens_org_clinical_patient_brca.txt</rwdl:URI>
        <rwdl:RowKey column="bcr_patient_barcode">TCGA-A2-A04Q</rwdl:RowKey>
        <rwdl:ColumnName>days_to_initial_pathologic_diagnosis</rwdl:ColumnName>
        <rwdl:SourceValue>0</rwdl:SourceValue>
        <rwdl:Format>TSV</rwdl:Format>
      </rwdl:Coordinate>
    </rwdl:Source>
    <rwdl:Target>
      <rwdl:Coordinate storage="FILESYSTEM" structure="TABULAR">
        <rwdl:URI>./MH.txt</rwdl:URI>
        <rwdl:RowIndex>11</rwdl:RowIndex>
        <rwdl:ColumnName>MHSTDY</rwdl:ColumnName>
        <rwdl:TargetValue>1</rwdl:TargetValue>
        <rwdl:Format>TSV</rwdl:Format>
      </rwdl:Coordinate>
    </rwdl:Target>
  </rwdl:MapID>
  <rwdl:MapID uuid="6feba95f-d485-5850-b10d-6dc804ea2f84" MethodDefOID="MT.MHSTRTPT.CONDITIONAL">
    <rwdl:Transformation type="Conditional Assign">Populated 'BEFORE' iff source == '[Not Available]'. [Source '2004' — not triggered, target blank.]</rwdl:Transformation>
    <rwdl:Source>
      <rwdl:Coordinate storage="FILESYSTEM" structure="TABULAR">
        <rwdl:URI>./nationwidechildrens_org_clinical_patient_brca.txt</rwdl:URI>
        <rwdl:RowKey column="bcr_patient_barcode">TCGA-A2-A04Q</rwdl:RowKey>
        <rwdl:ColumnName>initial_pathologic_dx_year</rwdl:ColumnName>
        <rwdl:SourceValue>2004</rwdl:SourceValue>
        <rwdl:Format>TSV</rwdl:Format>
      </rwdl:Coordinate>
    </rwdl:Source>
    <rwdl:Target>
      <rwdl:Coordinate storage="FILESYSTEM" structure="TABULAR">
        <rwdl:URI>./MH.txt</rwdl:URI>
        <rwdl:RowIndex>11</rwdl:RowIndex>
        <rwdl:ColumnName>MHSTRTPT</rwdl:ColumnName>
        <rwdl:TargetValue />
        <rwdl:Format>TSV</rwdl:Format>
      </rwdl:Coordinate>
    </rwdl:Target>
  </rwdl:MapID>
  <rwdl:MapID uuid="3c70391d-a46f-5445-b9da-61066ca7aaf7" MethodDefOID="MT.MHSTRTPT.CONDITIONAL">
    <rwdl:Transformation type="Conditional Assign">Populated 'SCREENING' iff source == '[Not Available]'. [Source '2004' — not triggered, target blank.]</rwdl:Transformation>
    <rwdl:Source>
      <rwdl:Coordinate storage="FILESYSTEM" structure="TABULAR">
        <rwdl:URI>./nationwidechildrens_org_clinical_patient_brca.txt</rwdl:URI>
        <rwdl:RowKey column="bcr_patient_barcode">TCGA-A2-A04Q</rwdl:RowKey>
        <rwdl:ColumnName>initial_pathologic_dx_year</rwdl:ColumnName>
        <rwdl:SourceValue>2004</rwdl:SourceValue>
        <rwdl:Format>TSV</rwdl:Format>
      </rwdl:Coordinate>
    </rwdl:Source>
    <rwdl:Target>
      <rwdl:Coordinate storage="FILESYSTEM" structure="TABULAR">
        <rwdl:URI>./MH.txt</rwdl:URI>
        <rwdl:RowIndex>11</rwdl:RowIndex>
        <rwdl:ColumnName>MHSTTPT</rwdl:ColumnName>
        <rwdl:TargetValue />
        <rwdl:Format>TSV</rwdl:Format>
      </rwdl:Coordinate>
    </rwdl:Target>
  </rwdl:MapID>
  <rwdl:MapID uuid="62bc810c-202d-5274-9e49-efef796d0ae0">
    <rwdl:Transformation type="Direct Map">Direct copy of bcr_patient_barcode.</rwdl:Transformation>
    <rwdl:Source>
      <rwdl:Coordinate storage="FILESYSTEM" structure="TABULAR">
        <rwdl:URI>./nationwidechildrens_org_clinical_patient_brca.txt</rwdl:URI>
        <rwdl:RowKey column="bcr_patient_barcode">TCGA-A2-A04R</rwdl:RowKey>
        <rwdl:ColumnName>bcr_patient_barcode</rwdl:ColumnName>
        <rwdl:SourceValue />
        <rwdl:Format>TSV</rwdl:Format>
      </rwdl:Coordinate>
    </rwdl:Source>
    <rwdl:Target>
      <rwdl:Coordinate storage="FILESYSTEM" structure="TABULAR">
        <rwdl:URI>./MH.txt</rwdl:URI>
        <rwdl:RowIndex>12</rwdl:RowIndex>
        <rwdl:ColumnName>USUBJID</rwdl:ColumnName>
        <rwdl:TargetValue>TCGA-A2-A04R</rwdl:TargetValue>
        <rwdl:Format>TSV</rwdl:Format>
      </rwdl:Coordinate>
    </rwdl:Target>
  </rwdl:MapID>
  <rwdl:MapID uuid="738e1125-5385-5bca-800a-ffaec5c14e33" MethodDefOID="MT.COMBINED.MHTERM">
    <rwdl:Transformation type="Conditional Concat">Conditional concat. See MT.COMBINED.MHTERM.</rwdl:Transformation>
    <rwdl:Source>
      <rwdl:Coordinate storage="FILESYSTEM" structure="TABULAR">
        <rwdl:URI>./nationwidechildrens_org_clinical_patient_brca.txt</rwdl:URI>
        <rwdl:RowKey column="bcr_patient_barcode">TCGA-A2-A04R</rwdl:RowKey>
        <rwdl:ColumnName>histological_type</rwdl:ColumnName>
        <rwdl:SourceValue>Infiltrating Ductal Carcinoma</rwdl:SourceValue>
        <rwdl:Format>TSV</rwdl:Format>
      </rwdl:Coordinate>
    </rwdl:Source>
    <rwdl:Target>
      <rwdl:Coordinate storage="FILESYSTEM" structure="TABULAR">
        <rwdl:URI>./MH.txt</rwdl:URI>
        <rwdl:RowIndex>12</rwdl:RowIndex>
        <rwdl:ColumnName>MHTERM</rwdl:ColumnName>
        <rwdl:TargetValue>Infiltrating Ductal Carcinoma</rwdl:TargetValue>
        <rwdl:Format>TSV</rwdl:Format>
      </rwdl:Coordinate>
    </rwdl:Target>
  </rwdl:MapID>
  <rwdl:MapID uuid="d2105834-c112-5286-b936-4bb11107eda9" MethodDefOID="MT.COMBINED.MHDECOD">
    <rwdl:Transformation type="Lookup">ICD-O-3 code to text via lookup. See MT.COMBINED.MHDECOD.</rwdl:Transformation>
    <rwdl:Source>
      <rwdl:Coordinate storage="FILESYSTEM" structure="TABULAR">
        <rwdl:URI>./nationwidechildrens_org_clinical_patient_brca.txt</rwdl:URI>
        <rwdl:RowKey column="bcr_patient_barcode">TCGA-A2-A04R</rwdl:RowKey>
        <rwdl:ColumnName>icd_o_3_histology</rwdl:ColumnName>
        <rwdl:SourceValue>8500/3</rwdl:SourceValue>
        <rwdl:Format>TSV</rwdl:Format>
      </rwdl:Coordinate>
    </rwdl:Source>
    <rwdl:Target>
      <rwdl:Coordinate storage="FILESYSTEM" structure="TABULAR">
        <rwdl:URI>./MH.txt</rwdl:URI>
        <rwdl:RowIndex>12</rwdl:RowIndex>
        <rwdl:ColumnName>MHDECOD</rwdl:ColumnName>
        <rwdl:TargetValue>Infiltrating duct carcinoma, NOS</rwdl:TargetValue>
        <rwdl:Format>TSV</rwdl:Format>
      </rwdl:Coordinate>
    </rwdl:Target>
  </rwdl:MapID>
  <rwdl:MapID uuid="d3835a7b-9c19-534b-a5c5-b930bfa944ad" MethodDefOID="MT.COMBINED.MHSTDTC">
    <rwdl:Transformation type="ISO8601 Year or Blank">Year-only ISO8601; blank if '[Not Available]'.</rwdl:Transformation>
    <rwdl:Source>
      <rwdl:Coordinate storage="FILESYSTEM" structure="TABULAR">
        <rwdl:URI>./nationwidechildrens_org_clinical_patient_brca.txt</rwdl:URI>
        <rwdl:RowKey column="bcr_patient_barcode">TCGA-A2-A04R</rwdl:RowKey>
        <rwdl:ColumnName>initial_pathologic_dx_year</rwdl:ColumnName>
        <rwdl:SourceValue>2004</rwdl:SourceValue>
        <rwdl:Format>TSV</rwdl:Format>
      </rwdl:Coordinate>
    </rwdl:Source>
    <rwdl:Target>
      <rwdl:Coordinate storage="FILESYSTEM" structure="TABULAR">
        <rwdl:URI>./MH.txt</rwdl:URI>
        <rwdl:RowIndex>12</rwdl:RowIndex>
        <rwdl:ColumnName>MHSTDTC</rwdl:ColumnName>
        <rwdl:TargetValue>2004</rwdl:TargetValue>
        <rwdl:Format>TSV</rwdl:Format>
      </rwdl:Coordinate>
    </rwdl:Target>
  </rwdl:MapID>
  <rwdl:MapID uuid="973b5543-9d40-5cc4-bb83-027f75fff8c2" MethodDefOID="MT.COMBINED.MHDTC">
    <rwdl:Transformation type="ISO8601 Conversion">YYYY-M-D to zero-padded YYYY-MM-DD.</rwdl:Transformation>
    <rwdl:Source>
      <rwdl:Coordinate storage="FILESYSTEM" structure="TABULAR">
        <rwdl:URI>./nationwidechildrens_org_clinical_patient_brca.txt</rwdl:URI>
        <rwdl:RowKey column="bcr_patient_barcode">TCGA-A2-A04R</rwdl:RowKey>
        <rwdl:ColumnName>form_completion_date</rwdl:ColumnName>
        <rwdl:SourceValue>2010-10-8</rwdl:SourceValue>
        <rwdl:Format>TSV</rwdl:Format>
      </rwdl:Coordinate>
    </rwdl:Source>
    <rwdl:Target>
      <rwdl:Coordinate storage="FILESYSTEM" structure="TABULAR">
        <rwdl:URI>./MH.txt</rwdl:URI>
        <rwdl:RowIndex>12</rwdl:RowIndex>
        <rwdl:ColumnName>MHDTC</rwdl:ColumnName>
        <rwdl:TargetValue>2010-10-08</rwdl:TargetValue>
        <rwdl:Format>TSV</rwdl:Format>
      </rwdl:Coordinate>
    </rwdl:Target>
  </rwdl:MapID>
  <rwdl:MapID uuid="dafb8231-06b1-562f-be6a-d62a8bde5d49" MethodDefOID="MT.MHSTDY.DAYSPLUS1">
    <rwdl:Transformation type="Derivation">MHSTDY = source + 1.</rwdl:Transformation>
    <rwdl:Source>
      <rwdl:Coordinate storage="FILESYSTEM" structure="TABULAR">
        <rwdl:URI>./nationwidechildrens_org_clinical_patient_brca.txt</rwdl:URI>
        <rwdl:RowKey column="bcr_patient_barcode">TCGA-A2-A04R</rwdl:RowKey>
        <rwdl:ColumnName>days_to_initial_pathologic_diagnosis</rwdl:ColumnName>
        <rwdl:SourceValue>0</rwdl:SourceValue>
        <rwdl:Format>TSV</rwdl:Format>
      </rwdl:Coordinate>
    </rwdl:Source>
    <rwdl:Target>
      <rwdl:Coordinate storage="FILESYSTEM" structure="TABULAR">
        <rwdl:URI>./MH.txt</rwdl:URI>
        <rwdl:RowIndex>12</rwdl:RowIndex>
        <rwdl:ColumnName>MHSTDY</rwdl:ColumnName>
        <rwdl:TargetValue>1</rwdl:TargetValue>
        <rwdl:Format>TSV</rwdl:Format>
      </rwdl:Coordinate>
    </rwdl:Target>
  </rwdl:MapID>
  <rwdl:MapID uuid="e87ab2a3-4b52-5f95-a184-997d62f8a8f9" MethodDefOID="MT.MHSTRTPT.CONDITIONAL">
    <rwdl:Transformation type="Conditional Assign">Populated 'BEFORE' iff source == '[Not Available]'. [Source '2004' — not triggered, target blank.]</rwdl:Transformation>
    <rwdl:Source>
      <rwdl:Coordinate storage="FILESYSTEM" structure="TABULAR">
        <rwdl:URI>./nationwidechildrens_org_clinical_patient_brca.txt</rwdl:URI>
        <rwdl:RowKey column="bcr_patient_barcode">TCGA-A2-A04R</rwdl:RowKey>
        <rwdl:ColumnName>initial_pathologic_dx_year</rwdl:ColumnName>
        <rwdl:SourceValue>2004</rwdl:SourceValue>
        <rwdl:Format>TSV</rwdl:Format>
      </rwdl:Coordinate>
    </rwdl:Source>
    <rwdl:Target>
      <rwdl:Coordinate storage="FILESYSTEM" structure="TABULAR">
        <rwdl:URI>./MH.txt</rwdl:URI>
        <rwdl:RowIndex>12</rwdl:RowIndex>
        <rwdl:ColumnName>MHSTRTPT</rwdl:ColumnName>
        <rwdl:TargetValue />
        <rwdl:Format>TSV</rwdl:Format>
      </rwdl:Coordinate>
    </rwdl:Target>
  </rwdl:MapID>
  <rwdl:MapID uuid="7b45c596-db9a-5b58-8afa-e8f83ee2c281" MethodDefOID="MT.MHSTRTPT.CONDITIONAL">
    <rwdl:Transformation type="Conditional Assign">Populated 'SCREENING' iff source == '[Not Available]'. [Source '2004' — not triggered, target blank.]</rwdl:Transformation>
    <rwdl:Source>
      <rwdl:Coordinate storage="FILESYSTEM" structure="TABULAR">
        <rwdl:URI>./nationwidechildrens_org_clinical_patient_brca.txt</rwdl:URI>
        <rwdl:RowKey column="bcr_patient_barcode">TCGA-A2-A04R</rwdl:RowKey>
        <rwdl:ColumnName>initial_pathologic_dx_year</rwdl:ColumnName>
        <rwdl:SourceValue>2004</rwdl:SourceValue>
        <rwdl:Format>TSV</rwdl:Format>
      </rwdl:Coordinate>
    </rwdl:Source>
    <rwdl:Target>
      <rwdl:Coordinate storage="FILESYSTEM" structure="TABULAR">
        <rwdl:URI>./MH.txt</rwdl:URI>
        <rwdl:RowIndex>12</rwdl:RowIndex>
        <rwdl:ColumnName>MHSTTPT</rwdl:ColumnName>
        <rwdl:TargetValue />
        <rwdl:Format>TSV</rwdl:Format>
      </rwdl:Coordinate>
    </rwdl:Target>
  </rwdl:MapID>
  <rwdl:MapID uuid="4a347304-8676-56e4-a1eb-7f80f666376e">
    <rwdl:Transformation type="Direct Map">Direct copy of bcr_patient_barcode.</rwdl:Transformation>
    <rwdl:Source>
      <rwdl:Coordinate storage="FILESYSTEM" structure="TABULAR">
        <rwdl:URI>./nationwidechildrens_org_clinical_patient_brca.txt</rwdl:URI>
        <rwdl:RowKey column="bcr_patient_barcode">TCGA-A2-A04U</rwdl:RowKey>
        <rwdl:ColumnName>bcr_patient_barcode</rwdl:ColumnName>
        <rwdl:SourceValue />
        <rwdl:Format>TSV</rwdl:Format>
      </rwdl:Coordinate>
    </rwdl:Source>
    <rwdl:Target>
      <rwdl:Coordinate storage="FILESYSTEM" structure="TABULAR">
        <rwdl:URI>./MH.txt</rwdl:URI>
        <rwdl:RowIndex>13</rwdl:RowIndex>
        <rwdl:ColumnName>USUBJID</rwdl:ColumnName>
        <rwdl:TargetValue>TCGA-A2-A04U</rwdl:TargetValue>
        <rwdl:Format>TSV</rwdl:Format>
      </rwdl:Coordinate>
    </rwdl:Target>
  </rwdl:MapID>
  <rwdl:MapID uuid="717882c1-8c1c-5d58-a5c5-ced7f60ec359" MethodDefOID="MT.COMBINED.MHTERM">
    <rwdl:Transformation type="Conditional Concat">Conditional concat. See MT.COMBINED.MHTERM.</rwdl:Transformation>
    <rwdl:Source>
      <rwdl:Coordinate storage="FILESYSTEM" structure="TABULAR">
        <rwdl:URI>./nationwidechildrens_org_clinical_patient_brca.txt</rwdl:URI>
        <rwdl:RowKey column="bcr_patient_barcode">TCGA-A2-A04U</rwdl:RowKey>
        <rwdl:ColumnName>histological_type</rwdl:ColumnName>
        <rwdl:SourceValue>Infiltrating Ductal Carcinoma</rwdl:SourceValue>
        <rwdl:Format>TSV</rwdl:Format>
      </rwdl:Coordinate>
    </rwdl:Source>
    <rwdl:Target>
      <rwdl:Coordinate storage="FILESYSTEM" structure="TABULAR">
        <rwdl:URI>./MH.txt</rwdl:URI>
        <rwdl:RowIndex>13</rwdl:RowIndex>
        <rwdl:ColumnName>MHTERM</rwdl:ColumnName>
        <rwdl:TargetValue>Infiltrating Ductal Carcinoma</rwdl:TargetValue>
        <rwdl:Format>TSV</rwdl:Format>
      </rwdl:Coordinate>
    </rwdl:Target>
  </rwdl:MapID>
  <rwdl:MapID uuid="09cdff1d-c103-5a51-92c6-7e94708009ce" MethodDefOID="MT.COMBINED.MHDECOD">
    <rwdl:Transformation type="Lookup">ICD-O-3 code to text via lookup. See MT.COMBINED.MHDECOD.</rwdl:Transformation>
    <rwdl:Source>
      <rwdl:Coordinate storage="FILESYSTEM" structure="TABULAR">
        <rwdl:URI>./nationwidechildrens_org_clinical_patient_brca.txt</rwdl:URI>
        <rwdl:RowKey column="bcr_patient_barcode">TCGA-A2-A04U</rwdl:RowKey>
        <rwdl:ColumnName>icd_o_3_histology</rwdl:ColumnName>
        <rwdl:SourceValue>8500/3</rwdl:SourceValue>
        <rwdl:Format>TSV</rwdl:Format>
      </rwdl:Coordinate>
    </rwdl:Source>
    <rwdl:Target>
      <rwdl:Coordinate storage="FILESYSTEM" structure="TABULAR">
        <rwdl:URI>./MH.txt</rwdl:URI>
        <rwdl:RowIndex>13</rwdl:RowIndex>
        <rwdl:ColumnName>MHDECOD</rwdl:ColumnName>
        <rwdl:TargetValue>Infiltrating duct carcinoma, NOS</rwdl:TargetValue>
        <rwdl:Format>TSV</rwdl:Format>
      </rwdl:Coordinate>
    </rwdl:Target>
  </rwdl:MapID>
  <rwdl:MapID uuid="a19e8bf0-34b6-58f8-b689-8eae10609715" MethodDefOID="MT.COMBINED.MHSTDTC">
    <rwdl:Transformation type="ISO8601 Year or Blank">Year-only ISO8601; blank if '[Not Available]'.</rwdl:Transformation>
    <rwdl:Source>
      <rwdl:Coordinate storage="FILESYSTEM" structure="TABULAR">
        <rwdl:URI>./nationwidechildrens_org_clinical_patient_brca.txt</rwdl:URI>
        <rwdl:RowKey column="bcr_patient_barcode">TCGA-A2-A04U</rwdl:RowKey>
        <rwdl:ColumnName>initial_pathologic_dx_year</rwdl:ColumnName>
        <rwdl:SourceValue>2004</rwdl:SourceValue>
        <rwdl:Format>TSV</rwdl:Format>
      </rwdl:Coordinate>
    </rwdl:Source>
    <rwdl:Target>
      <rwdl:Coordinate storage="FILESYSTEM" structure="TABULAR">
        <rwdl:URI>./MH.txt</rwdl:URI>
        <rwdl:RowIndex>13</rwdl:RowIndex>
        <rwdl:ColumnName>MHSTDTC</rwdl:ColumnName>
        <rwdl:TargetValue>2004</rwdl:TargetValue>
        <rwdl:Format>TSV</rwdl:Format>
      </rwdl:Coordinate>
    </rwdl:Target>
  </rwdl:MapID>
  <rwdl:MapID uuid="037fc6f8-fe11-5050-b0c9-dc4e9986521c" MethodDefOID="MT.COMBINED.MHDTC">
    <rwdl:Transformation type="ISO8601 Conversion">YYYY-M-D to zero-padded YYYY-MM-DD.</rwdl:Transformation>
    <rwdl:Source>
      <rwdl:Coordinate storage="FILESYSTEM" structure="TABULAR">
        <rwdl:URI>./nationwidechildrens_org_clinical_patient_brca.txt</rwdl:URI>
        <rwdl:RowKey column="bcr_patient_barcode">TCGA-A2-A04U</rwdl:RowKey>
        <rwdl:ColumnName>form_completion_date</rwdl:ColumnName>
        <rwdl:SourceValue>2011-1-5</rwdl:SourceValue>
        <rwdl:Format>TSV</rwdl:Format>
      </rwdl:Coordinate>
    </rwdl:Source>
    <rwdl:Target>
      <rwdl:Coordinate storage="FILESYSTEM" structure="TABULAR">
        <rwdl:URI>./MH.txt</rwdl:URI>
        <rwdl:RowIndex>13</rwdl:RowIndex>
        <rwdl:ColumnName>MHDTC</rwdl:ColumnName>
        <rwdl:TargetValue>2011-01-05</rwdl:TargetValue>
        <rwdl:Format>TSV</rwdl:Format>
      </rwdl:Coordinate>
    </rwdl:Target>
  </rwdl:MapID>
  <rwdl:MapID uuid="8ecad220-5c01-52b2-af18-9e70c8d741c1" MethodDefOID="MT.MHSTDY.DAYSPLUS1">
    <rwdl:Transformation type="Derivation">MHSTDY = source + 1.</rwdl:Transformation>
    <rwdl:Source>
      <rwdl:Coordinate storage="FILESYSTEM" structure="TABULAR">
        <rwdl:URI>./nationwidechildrens_org_clinical_patient_brca.txt</rwdl:URI>
        <rwdl:RowKey column="bcr_patient_barcode">TCGA-A2-A04U</rwdl:RowKey>
        <rwdl:ColumnName>days_to_initial_pathologic_diagnosis</rwdl:ColumnName>
        <rwdl:SourceValue>0</rwdl:SourceValue>
        <rwdl:Format>TSV</rwdl:Format>
      </rwdl:Coordinate>
    </rwdl:Source>
    <rwdl:Target>
      <rwdl:Coordinate storage="FILESYSTEM" structure="TABULAR">
        <rwdl:URI>./MH.txt</rwdl:URI>
        <rwdl:RowIndex>13</rwdl:RowIndex>
        <rwdl:ColumnName>MHSTDY</rwdl:ColumnName>
        <rwdl:TargetValue>1</rwdl:TargetValue>
        <rwdl:Format>TSV</rwdl:Format>
      </rwdl:Coordinate>
    </rwdl:Target>
  </rwdl:MapID>
  <rwdl:MapID uuid="47899283-6e63-51c5-91a3-35c234f70ba0" MethodDefOID="MT.MHSTRTPT.CONDITIONAL">
    <rwdl:Transformation type="Conditional Assign">Populated 'BEFORE' iff source == '[Not Available]'. [Source '2004' — not triggered, target blank.]</rwdl:Transformation>
    <rwdl:Source>
      <rwdl:Coordinate storage="FILESYSTEM" structure="TABULAR">
        <rwdl:URI>./nationwidechildrens_org_clinical_patient_brca.txt</rwdl:URI>
        <rwdl:RowKey column="bcr_patient_barcode">TCGA-A2-A04U</rwdl:RowKey>
        <rwdl:ColumnName>initial_pathologic_dx_year</rwdl:ColumnName>
        <rwdl:SourceValue>2004</rwdl:SourceValue>
        <rwdl:Format>TSV</rwdl:Format>
      </rwdl:Coordinate>
    </rwdl:Source>
    <rwdl:Target>
      <rwdl:Coordinate storage="FILESYSTEM" structure="TABULAR">
        <rwdl:URI>./MH.txt</rwdl:URI>
        <rwdl:RowIndex>13</rwdl:RowIndex>
        <rwdl:ColumnName>MHSTRTPT</rwdl:ColumnName>
        <rwdl:TargetValue />
        <rwdl:Format>TSV</rwdl:Format>
      </rwdl:Coordinate>
    </rwdl:Target>
  </rwdl:MapID>
  <rwdl:MapID uuid="5684627a-de08-5b00-bf7f-8f4725525d5f" MethodDefOID="MT.MHSTRTPT.CONDITIONAL">
    <rwdl:Transformation type="Conditional Assign">Populated 'SCREENING' iff source == '[Not Available]'. [Source '2004' — not triggered, target blank.]</rwdl:Transformation>
    <rwdl:Source>
      <rwdl:Coordinate storage="FILESYSTEM" structure="TABULAR">
        <rwdl:URI>./nationwidechildrens_org_clinical_patient_brca.txt</rwdl:URI>
        <rwdl:RowKey column="bcr_patient_barcode">TCGA-A2-A04U</rwdl:RowKey>
        <rwdl:ColumnName>initial_pathologic_dx_year</rwdl:ColumnName>
        <rwdl:SourceValue>2004</rwdl:SourceValue>
        <rwdl:Format>TSV</rwdl:Format>
      </rwdl:Coordinate>
    </rwdl:Source>
    <rwdl:Target>
      <rwdl:Coordinate storage="FILESYSTEM" structure="TABULAR">
        <rwdl:URI>./MH.txt</rwdl:URI>
        <rwdl:RowIndex>13</rwdl:RowIndex>
        <rwdl:ColumnName>MHSTTPT</rwdl:ColumnName>
        <rwdl:TargetValue />
        <rwdl:Format>TSV</rwdl:Format>
      </rwdl:Coordinate>
    </rwdl:Target>
  </rwdl:MapID>
  <rwdl:MapID uuid="597a251f-9c97-52fb-9b58-663d38181aa9">
    <rwdl:Transformation type="Direct Map">Direct copy of bcr_patient_barcode.</rwdl:Transformation>
    <rwdl:Source>
      <rwdl:Coordinate storage="FILESYSTEM" structure="TABULAR">
        <rwdl:URI>./nationwidechildrens_org_clinical_patient_brca.txt</rwdl:URI>
        <rwdl:RowKey column="bcr_patient_barcode">TCGA-A2-A04V</rwdl:RowKey>
        <rwdl:ColumnName>bcr_patient_barcode</rwdl:ColumnName>
        <rwdl:SourceValue />
        <rwdl:Format>TSV</rwdl:Format>
      </rwdl:Coordinate>
    </rwdl:Source>
    <rwdl:Target>
      <rwdl:Coordinate storage="FILESYSTEM" structure="TABULAR">
        <rwdl:URI>./MH.txt</rwdl:URI>
        <rwdl:RowIndex>14</rwdl:RowIndex>
        <rwdl:ColumnName>USUBJID</rwdl:ColumnName>
        <rwdl:TargetValue>TCGA-A2-A04V</rwdl:TargetValue>
        <rwdl:Format>TSV</rwdl:Format>
      </rwdl:Coordinate>
    </rwdl:Target>
  </rwdl:MapID>
  <rwdl:MapID uuid="7be0c63b-966e-51ba-af3b-eebbbb5fcb9d" MethodDefOID="MT.COMBINED.MHTERM">
    <rwdl:Transformation type="Conditional Concat">Conditional concat. See MT.COMBINED.MHTERM.</rwdl:Transformation>
    <rwdl:Source>
      <rwdl:Coordinate storage="FILESYSTEM" structure="TABULAR">
        <rwdl:URI>./nationwidechildrens_org_clinical_patient_brca.txt</rwdl:URI>
        <rwdl:RowKey column="bcr_patient_barcode">TCGA-A2-A04V</rwdl:RowKey>
        <rwdl:ColumnName>histological_type</rwdl:ColumnName>
        <rwdl:SourceValue>Infiltrating Ductal Carcinoma</rwdl:SourceValue>
        <rwdl:Format>TSV</rwdl:Format>
      </rwdl:Coordinate>
    </rwdl:Source>
    <rwdl:Target>
      <rwdl:Coordinate storage="FILESYSTEM" structure="TABULAR">
        <rwdl:URI>./MH.txt</rwdl:URI>
        <rwdl:RowIndex>14</rwdl:RowIndex>
        <rwdl:ColumnName>MHTERM</rwdl:ColumnName>
        <rwdl:TargetValue>Infiltrating Ductal Carcinoma</rwdl:TargetValue>
        <rwdl:Format>TSV</rwdl:Format>
      </rwdl:Coordinate>
    </rwdl:Target>
  </rwdl:MapID>
  <rwdl:MapID uuid="8dbb2136-ef52-52e9-b43c-8aef92e2890c" MethodDefOID="MT.COMBINED.MHDECOD">
    <rwdl:Transformation type="Lookup">ICD-O-3 code to text via lookup. See MT.COMBINED.MHDECOD.</rwdl:Transformation>
    <rwdl:Source>
      <rwdl:Coordinate storage="FILESYSTEM" structure="TABULAR">
        <rwdl:URI>./nationwidechildrens_org_clinical_patient_brca.txt</rwdl:URI>
        <rwdl:RowKey column="bcr_patient_barcode">TCGA-A2-A04V</rwdl:RowKey>
        <rwdl:ColumnName>icd_o_3_histology</rwdl:ColumnName>
        <rwdl:SourceValue>8500/3</rwdl:SourceValue>
        <rwdl:Format>TSV</rwdl:Format>
      </rwdl:Coordinate>
    </rwdl:Source>
    <rwdl:Target>
      <rwdl:Coordinate storage="FILESYSTEM" structure="TABULAR">
        <rwdl:URI>./MH.txt</rwdl:URI>
        <rwdl:RowIndex>14</rwdl:RowIndex>
        <rwdl:ColumnName>MHDECOD</rwdl:ColumnName>
        <rwdl:TargetValue>Infiltrating duct carcinoma, NOS</rwdl:TargetValue>
        <rwdl:Format>TSV</rwdl:Format>
      </rwdl:Coordinate>
    </rwdl:Target>
  </rwdl:MapID>
  <rwdl:MapID uuid="cafb9503-d41f-53fd-b277-21a44a58d01c" MethodDefOID="MT.COMBINED.MHSTDTC">
    <rwdl:Transformation type="ISO8601 Year or Blank">Year-only ISO8601; blank if '[Not Available]'.</rwdl:Transformation>
    <rwdl:Source>
      <rwdl:Coordinate storage="FILESYSTEM" structure="TABULAR">
        <rwdl:URI>./nationwidechildrens_org_clinical_patient_brca.txt</rwdl:URI>
        <rwdl:RowKey column="bcr_patient_barcode">TCGA-A2-A04V</rwdl:RowKey>
        <rwdl:ColumnName>initial_pathologic_dx_year</rwdl:ColumnName>
        <rwdl:SourceValue>2005</rwdl:SourceValue>
        <rwdl:Format>TSV</rwdl:Format>
      </rwdl:Coordinate>
    </rwdl:Source>
    <rwdl:Target>
      <rwdl:Coordinate storage="FILESYSTEM" structure="TABULAR">
        <rwdl:URI>./MH.txt</rwdl:URI>
        <rwdl:RowIndex>14</rwdl:RowIndex>
        <rwdl:ColumnName>MHSTDTC</rwdl:ColumnName>
        <rwdl:TargetValue>2005</rwdl:TargetValue>
        <rwdl:Format>TSV</rwdl:Format>
      </rwdl:Coordinate>
    </rwdl:Target>
  </rwdl:MapID>
  <rwdl:MapID uuid="153ce57d-1bb1-52b4-889c-e948176776c1" MethodDefOID="MT.COMBINED.MHDTC">
    <rwdl:Transformation type="ISO8601 Conversion">YYYY-M-D to zero-padded YYYY-MM-DD.</rwdl:Transformation>
    <rwdl:Source>
      <rwdl:Coordinate storage="FILESYSTEM" structure="TABULAR">
        <rwdl:URI>./nationwidechildrens_org_clinical_patient_brca.txt</rwdl:URI>
        <rwdl:RowKey column="bcr_patient_barcode">TCGA-A2-A04V</rwdl:RowKey>
        <rwdl:ColumnName>form_completion_date</rwdl:ColumnName>
        <rwdl:SourceValue>2010-8-10</rwdl:SourceValue>
        <rwdl:Format>TSV</rwdl:Format>
      </rwdl:Coordinate>
    </rwdl:Source>
    <rwdl:Target>
      <rwdl:Coordinate storage="FILESYSTEM" structure="TABULAR">
        <rwdl:URI>./MH.txt</rwdl:URI>
        <rwdl:RowIndex>14</rwdl:RowIndex>
        <rwdl:ColumnName>MHDTC</rwdl:ColumnName>
        <rwdl:TargetValue>2010-08-10</rwdl:TargetValue>
        <rwdl:Format>TSV</rwdl:Format>
      </rwdl:Coordinate>
    </rwdl:Target>
  </rwdl:MapID>
  <rwdl:MapID uuid="c85f1f66-2f88-5901-94b5-491c01058979" MethodDefOID="MT.MHSTDY.DAYSPLUS1">
    <rwdl:Transformation type="Derivation">MHSTDY = source + 1.</rwdl:Transformation>
    <rwdl:Source>
      <rwdl:Coordinate storage="FILESYSTEM" structure="TABULAR">
        <rwdl:URI>./nationwidechildrens_org_clinical_patient_brca.txt</rwdl:URI>
        <rwdl:RowKey column="bcr_patient_barcode">TCGA-A2-A04V</rwdl:RowKey>
        <rwdl:ColumnName>days_to_initial_pathologic_diagnosis</rwdl:ColumnName>
        <rwdl:SourceValue>0</rwdl:SourceValue>
        <rwdl:Format>TSV</rwdl:Format>
      </rwdl:Coordinate>
    </rwdl:Source>
    <rwdl:Target>
      <rwdl:Coordinate storage="FILESYSTEM" structure="TABULAR">
        <rwdl:URI>./MH.txt</rwdl:URI>
        <rwdl:RowIndex>14</rwdl:RowIndex>
        <rwdl:ColumnName>MHSTDY</rwdl:ColumnName>
        <rwdl:TargetValue>1</rwdl:TargetValue>
        <rwdl:Format>TSV</rwdl:Format>
      </rwdl:Coordinate>
    </rwdl:Target>
  </rwdl:MapID>
  <rwdl:MapID uuid="a55c81d1-9a03-5b38-be60-339a4d9c050a" MethodDefOID="MT.MHSTRTPT.CONDITIONAL">
    <rwdl:Transformation type="Conditional Assign">Populated 'BEFORE' iff source == '[Not Available]'. [Source '2005' — not triggered, target blank.]</rwdl:Transformation>
    <rwdl:Source>
      <rwdl:Coordinate storage="FILESYSTEM" structure="TABULAR">
        <rwdl:URI>./nationwidechildrens_org_clinical_patient_brca.txt</rwdl:URI>
        <rwdl:RowKey column="bcr_patient_barcode">TCGA-A2-A04V</rwdl:RowKey>
        <rwdl:ColumnName>initial_pathologic_dx_year</rwdl:ColumnName>
        <rwdl:SourceValue>2005</rwdl:SourceValue>
        <rwdl:Format>TSV</rwdl:Format>
      </rwdl:Coordinate>
    </rwdl:Source>
    <rwdl:Target>
      <rwdl:Coordinate storage="FILESYSTEM" structure="TABULAR">
        <rwdl:URI>./MH.txt</rwdl:URI>
        <rwdl:RowIndex>14</rwdl:RowIndex>
        <rwdl:ColumnName>MHSTRTPT</rwdl:ColumnName>
        <rwdl:TargetValue />
        <rwdl:Format>TSV</rwdl:Format>
      </rwdl:Coordinate>
    </rwdl:Target>
  </rwdl:MapID>
  <rwdl:MapID uuid="d34b3b7a-74b3-5220-9986-9f279de98e2a" MethodDefOID="MT.MHSTRTPT.CONDITIONAL">
    <rwdl:Transformation type="Conditional Assign">Populated 'SCREENING' iff source == '[Not Available]'. [Source '2005' — not triggered, target blank.]</rwdl:Transformation>
    <rwdl:Source>
      <rwdl:Coordinate storage="FILESYSTEM" structure="TABULAR">
        <rwdl:URI>./nationwidechildrens_org_clinical_patient_brca.txt</rwdl:URI>
        <rwdl:RowKey column="bcr_patient_barcode">TCGA-A2-A04V</rwdl:RowKey>
        <rwdl:ColumnName>initial_pathologic_dx_year</rwdl:ColumnName>
        <rwdl:SourceValue>2005</rwdl:SourceValue>
        <rwdl:Format>TSV</rwdl:Format>
      </rwdl:Coordinate>
    </rwdl:Source>
    <rwdl:Target>
      <rwdl:Coordinate storage="FILESYSTEM" structure="TABULAR">
        <rwdl:URI>./MH.txt</rwdl:URI>
        <rwdl:RowIndex>14</rwdl:RowIndex>
        <rwdl:ColumnName>MHSTTPT</rwdl:ColumnName>
        <rwdl:TargetValue />
        <rwdl:Format>TSV</rwdl:Format>
      </rwdl:Coordinate>
    </rwdl:Target>
  </rwdl:MapID>
  <rwdl:MapID uuid="e6cde0f9-57d4-5344-af40-1216b56cf6de">
    <rwdl:Transformation type="Direct Map">Direct copy of bcr_patient_barcode.</rwdl:Transformation>
    <rwdl:Source>
      <rwdl:Coordinate storage="FILESYSTEM" structure="TABULAR">
        <rwdl:URI>./nationwidechildrens_org_clinical_patient_brca.txt</rwdl:URI>
        <rwdl:RowKey column="bcr_patient_barcode">TCGA-A2-A04W</rwdl:RowKey>
        <rwdl:ColumnName>bcr_patient_barcode</rwdl:ColumnName>
        <rwdl:SourceValue />
        <rwdl:Format>TSV</rwdl:Format>
      </rwdl:Coordinate>
    </rwdl:Source>
    <rwdl:Target>
      <rwdl:Coordinate storage="FILESYSTEM" structure="TABULAR">
        <rwdl:URI>./MH.txt</rwdl:URI>
        <rwdl:RowIndex>15</rwdl:RowIndex>
        <rwdl:ColumnName>USUBJID</rwdl:ColumnName>
        <rwdl:TargetValue>TCGA-A2-A04W</rwdl:TargetValue>
        <rwdl:Format>TSV</rwdl:Format>
      </rwdl:Coordinate>
    </rwdl:Target>
  </rwdl:MapID>
  <rwdl:MapID uuid="e1f26f49-ba67-54bd-8d93-c4c918f45275" MethodDefOID="MT.COMBINED.MHTERM">
    <rwdl:Transformation type="Conditional Concat">Conditional concat. See MT.COMBINED.MHTERM.</rwdl:Transformation>
    <rwdl:Source>
      <rwdl:Coordinate storage="FILESYSTEM" structure="TABULAR">
        <rwdl:URI>./nationwidechildrens_org_clinical_patient_brca.txt</rwdl:URI>
        <rwdl:RowKey column="bcr_patient_barcode">TCGA-A2-A04W</rwdl:RowKey>
        <rwdl:ColumnName>histological_type</rwdl:ColumnName>
        <rwdl:SourceValue>Other  specify</rwdl:SourceValue>
        <rwdl:Format>TSV</rwdl:Format>
      </rwdl:Coordinate>
    </rwdl:Source>
    <rwdl:Target>
      <rwdl:Coordinate storage="FILESYSTEM" structure="TABULAR">
        <rwdl:URI>./MH.txt</rwdl:URI>
        <rwdl:RowIndex>15</rwdl:RowIndex>
        <rwdl:ColumnName>MHTERM</rwdl:ColumnName>
        <rwdl:TargetValue>Other specify - Apocrine</rwdl:TargetValue>
        <rwdl:Format>TSV</rwdl:Format>
      </rwdl:Coordinate>
    </rwdl:Target>
  </rwdl:MapID>
  <rwdl:MapID uuid="dcf38712-3db8-5d28-b152-deac00c99a0a" MethodDefOID="MT.COMBINED.MHTERM">
    <rwdl:Transformation type="Conditional Concat">Conditional concat. See MT.COMBINED.MHTERM.</rwdl:Transformation>
    <rwdl:Source>
      <rwdl:Coordinate storage="FILESYSTEM" structure="TABULAR">
        <rwdl:URI>./nationwidechildrens_org_clinical_patient_brca.txt</rwdl:URI>
        <rwdl:RowKey column="bcr_patient_barcode">TCGA-A2-A04W</rwdl:RowKey>
        <rwdl:ColumnName>histologic_diagnosis_other</rwdl:ColumnName>
        <rwdl:SourceValue>Apocrine</rwdl:SourceValue>
        <rwdl:Format>TSV</rwdl:Format>
      </rwdl:Coordinate>
    </rwdl:Source>
    <rwdl:Target>
      <rwdl:Coordinate storage="FILESYSTEM" structure="TABULAR">
        <rwdl:URI>./MH.txt</rwdl:URI>
        <rwdl:RowIndex>15</rwdl:RowIndex>
        <rwdl:ColumnName>MHTERM</rwdl:ColumnName>
        <rwdl:TargetValue>Other specify - Apocrine</rwdl:TargetValue>
        <rwdl:Format>TSV</rwdl:Format>
      </rwdl:Coordinate>
    </rwdl:Target>
  </rwdl:MapID>
  <rwdl:MapID uuid="b7d4b8dc-2f88-55d7-a47f-a833eb24f341" MethodDefOID="MT.COMBINED.MHDECOD">
    <rwdl:Transformation type="Lookup">ICD-O-3 code to text via lookup. See MT.COMBINED.MHDECOD.</rwdl:Transformation>
    <rwdl:Source>
      <rwdl:Coordinate storage="FILESYSTEM" structure="TABULAR">
        <rwdl:URI>./nationwidechildrens_org_clinical_patient_brca.txt</rwdl:URI>
        <rwdl:RowKey column="bcr_patient_barcode">TCGA-A2-A04W</rwdl:RowKey>
        <rwdl:ColumnName>icd_o_3_histology</rwdl:ColumnName>
        <rwdl:SourceValue>8401/3</rwdl:SourceValue>
        <rwdl:Format>TSV</rwdl:Format>
      </rwdl:Coordinate>
    </rwdl:Source>
    <rwdl:Target>
      <rwdl:Coordinate storage="FILESYSTEM" structure="TABULAR">
        <rwdl:URI>./MH.txt</rwdl:URI>
        <rwdl:RowIndex>15</rwdl:RowIndex>
        <rwdl:ColumnName>MHDECOD</rwdl:ColumnName>
        <rwdl:TargetValue>Apocrine adenocarcinoma</rwdl:TargetValue>
        <rwdl:Format>TSV</rwdl:Format>
      </rwdl:Coordinate>
    </rwdl:Target>
  </rwdl:MapID>
  <rwdl:MapID uuid="fa1dde8a-34f7-5082-9849-9263ce5c54e8" MethodDefOID="MT.COMBINED.MHSTDTC">
    <rwdl:Transformation type="ISO8601 Year or Blank">Year-only ISO8601; blank if '[Not Available]'.</rwdl:Transformation>
    <rwdl:Source>
      <rwdl:Coordinate storage="FILESYSTEM" structure="TABULAR">
        <rwdl:URI>./nationwidechildrens_org_clinical_patient_brca.txt</rwdl:URI>
        <rwdl:RowKey column="bcr_patient_barcode">TCGA-A2-A04W</rwdl:RowKey>
        <rwdl:ColumnName>initial_pathologic_dx_year</rwdl:ColumnName>
        <rwdl:SourceValue>2005</rwdl:SourceValue>
        <rwdl:Format>TSV</rwdl:Format>
      </rwdl:Coordinate>
    </rwdl:Source>
    <rwdl:Target>
      <rwdl:Coordinate storage="FILESYSTEM" structure="TABULAR">
        <rwdl:URI>./MH.txt</rwdl:URI>
        <rwdl:RowIndex>15</rwdl:RowIndex>
        <rwdl:ColumnName>MHSTDTC</rwdl:ColumnName>
        <rwdl:TargetValue>2005</rwdl:TargetValue>
        <rwdl:Format>TSV</rwdl:Format>
      </rwdl:Coordinate>
    </rwdl:Target>
  </rwdl:MapID>
  <rwdl:MapID uuid="dfb3fa57-8023-58c9-937c-fe7c80820105" MethodDefOID="MT.COMBINED.MHDTC">
    <rwdl:Transformation type="ISO8601 Conversion">YYYY-M-D to zero-padded YYYY-MM-DD.</rwdl:Transformation>
    <rwdl:Source>
      <rwdl:Coordinate storage="FILESYSTEM" structure="TABULAR">
        <rwdl:URI>./nationwidechildrens_org_clinical_patient_brca.txt</rwdl:URI>
        <rwdl:RowKey column="bcr_patient_barcode">TCGA-A2-A04W</rwdl:RowKey>
        <rwdl:ColumnName>form_completion_date</rwdl:ColumnName>
        <rwdl:SourceValue>2011-1-5</rwdl:SourceValue>
        <rwdl:Format>TSV</rwdl:Format>
      </rwdl:Coordinate>
    </rwdl:Source>
    <rwdl:Target>
      <rwdl:Coordinate storage="FILESYSTEM" structure="TABULAR">
        <rwdl:URI>./MH.txt</rwdl:URI>
        <rwdl:RowIndex>15</rwdl:RowIndex>
        <rwdl:ColumnName>MHDTC</rwdl:ColumnName>
        <rwdl:TargetValue>2011-01-05</rwdl:TargetValue>
        <rwdl:Format>TSV</rwdl:Format>
      </rwdl:Coordinate>
    </rwdl:Target>
  </rwdl:MapID>
  <rwdl:MapID uuid="6acc7d0c-dbf5-5cec-8719-30eac806e2da" MethodDefOID="MT.MHSTDY.DAYSPLUS1">
    <rwdl:Transformation type="Derivation">MHSTDY = source + 1.</rwdl:Transformation>
    <rwdl:Source>
      <rwdl:Coordinate storage="FILESYSTEM" structure="TABULAR">
        <rwdl:URI>./nationwidechildrens_org_clinical_patient_brca.txt</rwdl:URI>
        <rwdl:RowKey column="bcr_patient_barcode">TCGA-A2-A04W</rwdl:RowKey>
        <rwdl:ColumnName>days_to_initial_pathologic_diagnosis</rwdl:ColumnName>
        <rwdl:SourceValue>0</rwdl:SourceValue>
        <rwdl:Format>TSV</rwdl:Format>
      </rwdl:Coordinate>
    </rwdl:Source>
    <rwdl:Target>
      <rwdl:Coordinate storage="FILESYSTEM" structure="TABULAR">
        <rwdl:URI>./MH.txt</rwdl:URI>
        <rwdl:RowIndex>15</rwdl:RowIndex>
        <rwdl:ColumnName>MHSTDY</rwdl:ColumnName>
        <rwdl:TargetValue>1</rwdl:TargetValue>
        <rwdl:Format>TSV</rwdl:Format>
      </rwdl:Coordinate>
    </rwdl:Target>
  </rwdl:MapID>
  <rwdl:MapID uuid="893d0e27-6c64-5e8c-ad4c-9ead3094a659" MethodDefOID="MT.MHSTRTPT.CONDITIONAL">
    <rwdl:Transformation type="Conditional Assign">Populated 'BEFORE' iff source == '[Not Available]'. [Source '2005' — not triggered, target blank.]</rwdl:Transformation>
    <rwdl:Source>
      <rwdl:Coordinate storage="FILESYSTEM" structure="TABULAR">
        <rwdl:URI>./nationwidechildrens_org_clinical_patient_brca.txt</rwdl:URI>
        <rwdl:RowKey column="bcr_patient_barcode">TCGA-A2-A04W</rwdl:RowKey>
        <rwdl:ColumnName>initial_pathologic_dx_year</rwdl:ColumnName>
        <rwdl:SourceValue>2005</rwdl:SourceValue>
        <rwdl:Format>TSV</rwdl:Format>
      </rwdl:Coordinate>
    </rwdl:Source>
    <rwdl:Target>
      <rwdl:Coordinate storage="FILESYSTEM" structure="TABULAR">
        <rwdl:URI>./MH.txt</rwdl:URI>
        <rwdl:RowIndex>15</rwdl:RowIndex>
        <rwdl:ColumnName>MHSTRTPT</rwdl:ColumnName>
        <rwdl:TargetValue />
        <rwdl:Format>TSV</rwdl:Format>
      </rwdl:Coordinate>
    </rwdl:Target>
  </rwdl:MapID>
  <rwdl:MapID uuid="8d7339f7-6227-5f4d-bc51-4b07b1fd1097" MethodDefOID="MT.MHSTRTPT.CONDITIONAL">
    <rwdl:Transformation type="Conditional Assign">Populated 'SCREENING' iff source == '[Not Available]'. [Source '2005' — not triggered, target blank.]</rwdl:Transformation>
    <rwdl:Source>
      <rwdl:Coordinate storage="FILESYSTEM" structure="TABULAR">
        <rwdl:URI>./nationwidechildrens_org_clinical_patient_brca.txt</rwdl:URI>
        <rwdl:RowKey column="bcr_patient_barcode">TCGA-A2-A04W</rwdl:RowKey>
        <rwdl:ColumnName>initial_pathologic_dx_year</rwdl:ColumnName>
        <rwdl:SourceValue>2005</rwdl:SourceValue>
        <rwdl:Format>TSV</rwdl:Format>
      </rwdl:Coordinate>
    </rwdl:Source>
    <rwdl:Target>
      <rwdl:Coordinate storage="FILESYSTEM" structure="TABULAR">
        <rwdl:URI>./MH.txt</rwdl:URI>
        <rwdl:RowIndex>15</rwdl:RowIndex>
        <rwdl:ColumnName>MHSTTPT</rwdl:ColumnName>
        <rwdl:TargetValue />
        <rwdl:Format>TSV</rwdl:Format>
      </rwdl:Coordinate>
    </rwdl:Target>
  </rwdl:MapID>
  <rwdl:MapID uuid="d3089848-7c08-58e4-8dfe-a8a6409683ff">
    <rwdl:Transformation type="Direct Map">Direct copy of bcr_patient_barcode.</rwdl:Transformation>
    <rwdl:Source>
      <rwdl:Coordinate storage="FILESYSTEM" structure="TABULAR">
        <rwdl:URI>./nationwidechildrens_org_clinical_patient_brca.txt</rwdl:URI>
        <rwdl:RowKey column="bcr_patient_barcode">TCGA-A2-A04X</rwdl:RowKey>
        <rwdl:ColumnName>bcr_patient_barcode</rwdl:ColumnName>
        <rwdl:SourceValue />
        <rwdl:Format>TSV</rwdl:Format>
      </rwdl:Coordinate>
    </rwdl:Source>
    <rwdl:Target>
      <rwdl:Coordinate storage="FILESYSTEM" structure="TABULAR">
        <rwdl:URI>./MH.txt</rwdl:URI>
        <rwdl:RowIndex>16</rwdl:RowIndex>
        <rwdl:ColumnName>USUBJID</rwdl:ColumnName>
        <rwdl:TargetValue>TCGA-A2-A04X</rwdl:TargetValue>
        <rwdl:Format>TSV</rwdl:Format>
      </rwdl:Coordinate>
    </rwdl:Target>
  </rwdl:MapID>
  <rwdl:MapID uuid="f9b9e567-494e-5e2c-b58d-d7b042cd8dab" MethodDefOID="MT.COMBINED.MHTERM">
    <rwdl:Transformation type="Conditional Concat">Conditional concat. See MT.COMBINED.MHTERM.</rwdl:Transformation>
    <rwdl:Source>
      <rwdl:Coordinate storage="FILESYSTEM" structure="TABULAR">
        <rwdl:URI>./nationwidechildrens_org_clinical_patient_brca.txt</rwdl:URI>
        <rwdl:RowKey column="bcr_patient_barcode">TCGA-A2-A04X</rwdl:RowKey>
        <rwdl:ColumnName>histological_type</rwdl:ColumnName>
        <rwdl:SourceValue>Infiltrating Ductal Carcinoma</rwdl:SourceValue>
        <rwdl:Format>TSV</rwdl:Format>
      </rwdl:Coordinate>
    </rwdl:Source>
    <rwdl:Target>
      <rwdl:Coordinate storage="FILESYSTEM" structure="TABULAR">
        <rwdl:URI>./MH.txt</rwdl:URI>
        <rwdl:RowIndex>16</rwdl:RowIndex>
        <rwdl:ColumnName>MHTERM</rwdl:ColumnName>
        <rwdl:TargetValue>Infiltrating Ductal Carcinoma</rwdl:TargetValue>
        <rwdl:Format>TSV</rwdl:Format>
      </rwdl:Coordinate>
    </rwdl:Target>
  </rwdl:MapID>
  <rwdl:MapID uuid="c498ec9a-f1c2-5423-be94-6e734588c475" MethodDefOID="MT.COMBINED.MHDECOD">
    <rwdl:Transformation type="Lookup">ICD-O-3 code to text via lookup. See MT.COMBINED.MHDECOD.</rwdl:Transformation>
    <rwdl:Source>
      <rwdl:Coordinate storage="FILESYSTEM" structure="TABULAR">
        <rwdl:URI>./nationwidechildrens_org_clinical_patient_brca.txt</rwdl:URI>
        <rwdl:RowKey column="bcr_patient_barcode">TCGA-A2-A04X</rwdl:RowKey>
        <rwdl:ColumnName>icd_o_3_histology</rwdl:ColumnName>
        <rwdl:SourceValue>8500/3</rwdl:SourceValue>
        <rwdl:Format>TSV</rwdl:Format>
      </rwdl:Coordinate>
    </rwdl:Source>
    <rwdl:Target>
      <rwdl:Coordinate storage="FILESYSTEM" structure="TABULAR">
        <rwdl:URI>./MH.txt</rwdl:URI>
        <rwdl:RowIndex>16</rwdl:RowIndex>
        <rwdl:ColumnName>MHDECOD</rwdl:ColumnName>
        <rwdl:TargetValue>Infiltrating duct carcinoma, NOS</rwdl:TargetValue>
        <rwdl:Format>TSV</rwdl:Format>
      </rwdl:Coordinate>
    </rwdl:Target>
  </rwdl:MapID>
  <rwdl:MapID uuid="c8aefe62-e31e-5d77-9fd3-813e6eee2004" MethodDefOID="MT.COMBINED.MHSTDTC">
    <rwdl:Transformation type="ISO8601 Year or Blank">Year-only ISO8601; blank if '[Not Available]'.</rwdl:Transformation>
    <rwdl:Source>
      <rwdl:Coordinate storage="FILESYSTEM" structure="TABULAR">
        <rwdl:URI>./nationwidechildrens_org_clinical_patient_brca.txt</rwdl:URI>
        <rwdl:RowKey column="bcr_patient_barcode">TCGA-A2-A04X</rwdl:RowKey>
        <rwdl:ColumnName>initial_pathologic_dx_year</rwdl:ColumnName>
        <rwdl:SourceValue>2006</rwdl:SourceValue>
        <rwdl:Format>TSV</rwdl:Format>
      </rwdl:Coordinate>
    </rwdl:Source>
    <rwdl:Target>
      <rwdl:Coordinate storage="FILESYSTEM" structure="TABULAR">
        <rwdl:URI>./MH.txt</rwdl:URI>
        <rwdl:RowIndex>16</rwdl:RowIndex>
        <rwdl:ColumnName>MHSTDTC</rwdl:ColumnName>
        <rwdl:TargetValue>2006</rwdl:TargetValue>
        <rwdl:Format>TSV</rwdl:Format>
      </rwdl:Coordinate>
    </rwdl:Target>
  </rwdl:MapID>
  <rwdl:MapID uuid="5f29fe45-98a0-5850-a3ef-d73abdea2e3d" MethodDefOID="MT.COMBINED.MHDTC">
    <rwdl:Transformation type="ISO8601 Conversion">YYYY-M-D to zero-padded YYYY-MM-DD.</rwdl:Transformation>
    <rwdl:Source>
      <rwdl:Coordinate storage="FILESYSTEM" structure="TABULAR">
        <rwdl:URI>./nationwidechildrens_org_clinical_patient_brca.txt</rwdl:URI>
        <rwdl:RowKey column="bcr_patient_barcode">TCGA-A2-A04X</rwdl:RowKey>
        <rwdl:ColumnName>form_completion_date</rwdl:ColumnName>
        <rwdl:SourceValue>2010-8-9</rwdl:SourceValue>
        <rwdl:Format>TSV</rwdl:Format>
      </rwdl:Coordinate>
    </rwdl:Source>
    <rwdl:Target>
      <rwdl:Coordinate storage="FILESYSTEM" structure="TABULAR">
        <rwdl:URI>./MH.txt</rwdl:URI>
        <rwdl:RowIndex>16</rwdl:RowIndex>
        <rwdl:ColumnName>MHDTC</rwdl:ColumnName>
        <rwdl:TargetValue>2010-08-09</rwdl:TargetValue>
        <rwdl:Format>TSV</rwdl:Format>
      </rwdl:Coordinate>
    </rwdl:Target>
  </rwdl:MapID>
  <rwdl:MapID uuid="cd19ab06-3b32-569d-bc79-e1eb1dd13a92" MethodDefOID="MT.MHSTDY.DAYSPLUS1">
    <rwdl:Transformation type="Derivation">MHSTDY = source + 1.</rwdl:Transformation>
    <rwdl:Source>
      <rwdl:Coordinate storage="FILESYSTEM" structure="TABULAR">
        <rwdl:URI>./nationwidechildrens_org_clinical_patient_brca.txt</rwdl:URI>
        <rwdl:RowKey column="bcr_patient_barcode">TCGA-A2-A04X</rwdl:RowKey>
        <rwdl:ColumnName>days_to_initial_pathologic_diagnosis</rwdl:ColumnName>
        <rwdl:SourceValue>0</rwdl:SourceValue>
        <rwdl:Format>TSV</rwdl:Format>
      </rwdl:Coordinate>
    </rwdl:Source>
    <rwdl:Target>
      <rwdl:Coordinate storage="FILESYSTEM" structure="TABULAR">
        <rwdl:URI>./MH.txt</rwdl:URI>
        <rwdl:RowIndex>16</rwdl:RowIndex>
        <rwdl:ColumnName>MHSTDY</rwdl:ColumnName>
        <rwdl:TargetValue>1</rwdl:TargetValue>
        <rwdl:Format>TSV</rwdl:Format>
      </rwdl:Coordinate>
    </rwdl:Target>
  </rwdl:MapID>
  <rwdl:MapID uuid="718b0769-2a7f-5d03-80fd-fd25269cb469" MethodDefOID="MT.MHSTRTPT.CONDITIONAL">
    <rwdl:Transformation type="Conditional Assign">Populated 'BEFORE' iff source == '[Not Available]'. [Source '2006' — not triggered, target blank.]</rwdl:Transformation>
    <rwdl:Source>
      <rwdl:Coordinate storage="FILESYSTEM" structure="TABULAR">
        <rwdl:URI>./nationwidechildrens_org_clinical_patient_brca.txt</rwdl:URI>
        <rwdl:RowKey column="bcr_patient_barcode">TCGA-A2-A04X</rwdl:RowKey>
        <rwdl:ColumnName>initial_pathologic_dx_year</rwdl:ColumnName>
        <rwdl:SourceValue>2006</rwdl:SourceValue>
        <rwdl:Format>TSV</rwdl:Format>
      </rwdl:Coordinate>
    </rwdl:Source>
    <rwdl:Target>
      <rwdl:Coordinate storage="FILESYSTEM" structure="TABULAR">
        <rwdl:URI>./MH.txt</rwdl:URI>
        <rwdl:RowIndex>16</rwdl:RowIndex>
        <rwdl:ColumnName>MHSTRTPT</rwdl:ColumnName>
        <rwdl:TargetValue />
        <rwdl:Format>TSV</rwdl:Format>
      </rwdl:Coordinate>
    </rwdl:Target>
  </rwdl:MapID>
  <rwdl:MapID uuid="6aa63e2d-3f31-5c4b-ab52-5033ea85f1c7" MethodDefOID="MT.MHSTRTPT.CONDITIONAL">
    <rwdl:Transformation type="Conditional Assign">Populated 'SCREENING' iff source == '[Not Available]'. [Source '2006' — not triggered, target blank.]</rwdl:Transformation>
    <rwdl:Source>
      <rwdl:Coordinate storage="FILESYSTEM" structure="TABULAR">
        <rwdl:URI>./nationwidechildrens_org_clinical_patient_brca.txt</rwdl:URI>
        <rwdl:RowKey column="bcr_patient_barcode">TCGA-A2-A04X</rwdl:RowKey>
        <rwdl:ColumnName>initial_pathologic_dx_year</rwdl:ColumnName>
        <rwdl:SourceValue>2006</rwdl:SourceValue>
        <rwdl:Format>TSV</rwdl:Format>
      </rwdl:Coordinate>
    </rwdl:Source>
    <rwdl:Target>
      <rwdl:Coordinate storage="FILESYSTEM" structure="TABULAR">
        <rwdl:URI>./MH.txt</rwdl:URI>
        <rwdl:RowIndex>16</rwdl:RowIndex>
        <rwdl:ColumnName>MHSTTPT</rwdl:ColumnName>
        <rwdl:TargetValue />
        <rwdl:Format>TSV</rwdl:Format>
      </rwdl:Coordinate>
    </rwdl:Target>
  </rwdl:MapID>
  <rwdl:MapID uuid="cc7d8c2e-89ff-59b1-b699-a50de02be0dc">
    <rwdl:Transformation type="Direct Map">Direct copy of bcr_patient_barcode.</rwdl:Transformation>
    <rwdl:Source>
      <rwdl:Coordinate storage="FILESYSTEM" structure="TABULAR">
        <rwdl:URI>./nationwidechildrens_org_clinical_patient_brca.txt</rwdl:URI>
        <rwdl:RowKey column="bcr_patient_barcode">TCGA-A2-A04Y</rwdl:RowKey>
        <rwdl:ColumnName>bcr_patient_barcode</rwdl:ColumnName>
        <rwdl:SourceValue />
        <rwdl:Format>TSV</rwdl:Format>
      </rwdl:Coordinate>
    </rwdl:Source>
    <rwdl:Target>
      <rwdl:Coordinate storage="FILESYSTEM" structure="TABULAR">
        <rwdl:URI>./MH.txt</rwdl:URI>
        <rwdl:RowIndex>17</rwdl:RowIndex>
        <rwdl:ColumnName>USUBJID</rwdl:ColumnName>
        <rwdl:TargetValue>TCGA-A2-A04Y</rwdl:TargetValue>
        <rwdl:Format>TSV</rwdl:Format>
      </rwdl:Coordinate>
    </rwdl:Target>
  </rwdl:MapID>
  <rwdl:MapID uuid="1bafe6be-9f28-5c2a-b32c-c5ebebef99de" MethodDefOID="MT.COMBINED.MHTERM">
    <rwdl:Transformation type="Conditional Concat">Conditional concat. See MT.COMBINED.MHTERM.</rwdl:Transformation>
    <rwdl:Source>
      <rwdl:Coordinate storage="FILESYSTEM" structure="TABULAR">
        <rwdl:URI>./nationwidechildrens_org_clinical_patient_brca.txt</rwdl:URI>
        <rwdl:RowKey column="bcr_patient_barcode">TCGA-A2-A04Y</rwdl:RowKey>
        <rwdl:ColumnName>histological_type</rwdl:ColumnName>
        <rwdl:SourceValue>Infiltrating Ductal Carcinoma</rwdl:SourceValue>
        <rwdl:Format>TSV</rwdl:Format>
      </rwdl:Coordinate>
    </rwdl:Source>
    <rwdl:Target>
      <rwdl:Coordinate storage="FILESYSTEM" structure="TABULAR">
        <rwdl:URI>./MH.txt</rwdl:URI>
        <rwdl:RowIndex>17</rwdl:RowIndex>
        <rwdl:ColumnName>MHTERM</rwdl:ColumnName>
        <rwdl:TargetValue>Infiltrating Ductal Carcinoma</rwdl:TargetValue>
        <rwdl:Format>TSV</rwdl:Format>
      </rwdl:Coordinate>
    </rwdl:Target>
  </rwdl:MapID>
  <rwdl:MapID uuid="09587a1a-aa9a-53b2-8659-4c973de7fcfb" MethodDefOID="MT.COMBINED.MHDECOD">
    <rwdl:Transformation type="Lookup">ICD-O-3 code to text via lookup. See MT.COMBINED.MHDECOD.</rwdl:Transformation>
    <rwdl:Source>
      <rwdl:Coordinate storage="FILESYSTEM" structure="TABULAR">
        <rwdl:URI>./nationwidechildrens_org_clinical_patient_brca.txt</rwdl:URI>
        <rwdl:RowKey column="bcr_patient_barcode">TCGA-A2-A04Y</rwdl:RowKey>
        <rwdl:ColumnName>icd_o_3_histology</rwdl:ColumnName>
        <rwdl:SourceValue>8500/3</rwdl:SourceValue>
        <rwdl:Format>TSV</rwdl:Format>
      </rwdl:Coordinate>
    </rwdl:Source>
    <rwdl:Target>
      <rwdl:Coordinate storage="FILESYSTEM" structure="TABULAR">
        <rwdl:URI>./MH.txt</rwdl:URI>
        <rwdl:RowIndex>17</rwdl:RowIndex>
        <rwdl:ColumnName>MHDECOD</rwdl:ColumnName>
        <rwdl:TargetValue>Infiltrating duct carcinoma, NOS</rwdl:TargetValue>
        <rwdl:Format>TSV</rwdl:Format>
      </rwdl:Coordinate>
    </rwdl:Target>
  </rwdl:MapID>
  <rwdl:MapID uuid="8767045a-ee08-5c00-a7af-291ec56efe37" MethodDefOID="MT.COMBINED.MHSTDTC">
    <rwdl:Transformation type="ISO8601 Year or Blank">Year-only ISO8601; blank if '[Not Available]'.</rwdl:Transformation>
    <rwdl:Source>
      <rwdl:Coordinate storage="FILESYSTEM" structure="TABULAR">
        <rwdl:URI>./nationwidechildrens_org_clinical_patient_brca.txt</rwdl:URI>
        <rwdl:RowKey column="bcr_patient_barcode">TCGA-A2-A04Y</rwdl:RowKey>
        <rwdl:ColumnName>initial_pathologic_dx_year</rwdl:ColumnName>
        <rwdl:SourceValue>2008</rwdl:SourceValue>
        <rwdl:Format>TSV</rwdl:Format>
      </rwdl:Coordinate>
    </rwdl:Source>
    <rwdl:Target>
      <rwdl:Coordinate storage="FILESYSTEM" structure="TABULAR">
        <rwdl:URI>./MH.txt</rwdl:URI>
        <rwdl:RowIndex>17</rwdl:RowIndex>
        <rwdl:ColumnName>MHSTDTC</rwdl:ColumnName>
        <rwdl:TargetValue>2008</rwdl:TargetValue>
        <rwdl:Format>TSV</rwdl:Format>
      </rwdl:Coordinate>
    </rwdl:Target>
  </rwdl:MapID>
  <rwdl:MapID uuid="4d0d9018-e8c5-52cb-ad3a-011091f1b345" MethodDefOID="MT.COMBINED.MHDTC">
    <rwdl:Transformation type="ISO8601 Conversion">YYYY-M-D to zero-padded YYYY-MM-DD.</rwdl:Transformation>
    <rwdl:Source>
      <rwdl:Coordinate storage="FILESYSTEM" structure="TABULAR">
        <rwdl:URI>./nationwidechildrens_org_clinical_patient_brca.txt</rwdl:URI>
        <rwdl:RowKey column="bcr_patient_barcode">TCGA-A2-A04Y</rwdl:RowKey>
        <rwdl:ColumnName>form_completion_date</rwdl:ColumnName>
        <rwdl:SourceValue>2010-8-9</rwdl:SourceValue>
        <rwdl:Format>TSV</rwdl:Format>
      </rwdl:Coordinate>
    </rwdl:Source>
    <rwdl:Target>
      <rwdl:Coordinate storage="FILESYSTEM" structure="TABULAR">
        <rwdl:URI>./MH.txt</rwdl:URI>
        <rwdl:RowIndex>17</rwdl:RowIndex>
        <rwdl:ColumnName>MHDTC</rwdl:ColumnName>
        <rwdl:TargetValue>2010-08-09</rwdl:TargetValue>
        <rwdl:Format>TSV</rwdl:Format>
      </rwdl:Coordinate>
    </rwdl:Target>
  </rwdl:MapID>
  <rwdl:MapID uuid="5855fdd4-d99b-51be-8bd3-2119181b9487" MethodDefOID="MT.MHSTDY.DAYSPLUS1">
    <rwdl:Transformation type="Derivation">MHSTDY = source + 1.</rwdl:Transformation>
    <rwdl:Source>
      <rwdl:Coordinate storage="FILESYSTEM" structure="TABULAR">
        <rwdl:URI>./nationwidechildrens_org_clinical_patient_brca.txt</rwdl:URI>
        <rwdl:RowKey column="bcr_patient_barcode">TCGA-A2-A04Y</rwdl:RowKey>
        <rwdl:ColumnName>days_to_initial_pathologic_diagnosis</rwdl:ColumnName>
        <rwdl:SourceValue>0</rwdl:SourceValue>
        <rwdl:Format>TSV</rwdl:Format>
      </rwdl:Coordinate>
    </rwdl:Source>
    <rwdl:Target>
      <rwdl:Coordinate storage="FILESYSTEM" structure="TABULAR">
        <rwdl:URI>./MH.txt</rwdl:URI>
        <rwdl:RowIndex>17</rwdl:RowIndex>
        <rwdl:ColumnName>MHSTDY</rwdl:ColumnName>
        <rwdl:TargetValue>1</rwdl:TargetValue>
        <rwdl:Format>TSV</rwdl:Format>
      </rwdl:Coordinate>
    </rwdl:Target>
  </rwdl:MapID>
  <rwdl:MapID uuid="01de8d3e-c671-5b33-9c8d-80df2aee5ac6" MethodDefOID="MT.MHSTRTPT.CONDITIONAL">
    <rwdl:Transformation type="Conditional Assign">Populated 'BEFORE' iff source == '[Not Available]'. [Source '2008' — not triggered, target blank.]</rwdl:Transformation>
    <rwdl:Source>
      <rwdl:Coordinate storage="FILESYSTEM" structure="TABULAR">
        <rwdl:URI>./nationwidechildrens_org_clinical_patient_brca.txt</rwdl:URI>
        <rwdl:RowKey column="bcr_patient_barcode">TCGA-A2-A04Y</rwdl:RowKey>
        <rwdl:ColumnName>initial_pathologic_dx_year</rwdl:ColumnName>
        <rwdl:SourceValue>2008</rwdl:SourceValue>
        <rwdl:Format>TSV</rwdl:Format>
      </rwdl:Coordinate>
    </rwdl:Source>
    <rwdl:Target>
      <rwdl:Coordinate storage="FILESYSTEM" structure="TABULAR">
        <rwdl:URI>./MH.txt</rwdl:URI>
        <rwdl:RowIndex>17</rwdl:RowIndex>
        <rwdl:ColumnName>MHSTRTPT</rwdl:ColumnName>
        <rwdl:TargetValue />
        <rwdl:Format>TSV</rwdl:Format>
      </rwdl:Coordinate>
    </rwdl:Target>
  </rwdl:MapID>
  <rwdl:MapID uuid="c54e4efc-90a8-52d6-805e-015c00b31e5f" MethodDefOID="MT.MHSTRTPT.CONDITIONAL">
    <rwdl:Transformation type="Conditional Assign">Populated 'SCREENING' iff source == '[Not Available]'. [Source '2008' — not triggered, target blank.]</rwdl:Transformation>
    <rwdl:Source>
      <rwdl:Coordinate storage="FILESYSTEM" structure="TABULAR">
        <rwdl:URI>./nationwidechildrens_org_clinical_patient_brca.txt</rwdl:URI>
        <rwdl:RowKey column="bcr_patient_barcode">TCGA-A2-A04Y</rwdl:RowKey>
        <rwdl:ColumnName>initial_pathologic_dx_year</rwdl:ColumnName>
        <rwdl:SourceValue>2008</rwdl:SourceValue>
        <rwdl:Format>TSV</rwdl:Format>
      </rwdl:Coordinate>
    </rwdl:Source>
    <rwdl:Target>
      <rwdl:Coordinate storage="FILESYSTEM" structure="TABULAR">
        <rwdl:URI>./MH.txt</rwdl:URI>
        <rwdl:RowIndex>17</rwdl:RowIndex>
        <rwdl:ColumnName>MHSTTPT</rwdl:ColumnName>
        <rwdl:TargetValue />
        <rwdl:Format>TSV</rwdl:Format>
      </rwdl:Coordinate>
    </rwdl:Target>
  </rwdl:MapID>
  <rwdl:MapID uuid="43cb29af-8303-50ab-b325-706891f9adce">
    <rwdl:Transformation type="Direct Map">Direct copy of bcr_patient_barcode.</rwdl:Transformation>
    <rwdl:Source>
      <rwdl:Coordinate storage="FILESYSTEM" structure="TABULAR">
        <rwdl:URI>./nationwidechildrens_org_clinical_patient_brca.txt</rwdl:URI>
        <rwdl:RowKey column="bcr_patient_barcode">TCGA-A2-A0CK</rwdl:RowKey>
        <rwdl:ColumnName>bcr_patient_barcode</rwdl:ColumnName>
        <rwdl:SourceValue />
        <rwdl:Format>TSV</rwdl:Format>
      </rwdl:Coordinate>
    </rwdl:Source>
    <rwdl:Target>
      <rwdl:Coordinate storage="FILESYSTEM" structure="TABULAR">
        <rwdl:URI>./MH.txt</rwdl:URI>
        <rwdl:RowIndex>18</rwdl:RowIndex>
        <rwdl:ColumnName>USUBJID</rwdl:ColumnName>
        <rwdl:TargetValue>TCGA-A2-A0CK</rwdl:TargetValue>
        <rwdl:Format>TSV</rwdl:Format>
      </rwdl:Coordinate>
    </rwdl:Target>
  </rwdl:MapID>
  <rwdl:MapID uuid="9567cce9-db59-560e-951c-4379bc0514ae" MethodDefOID="MT.COMBINED.MHTERM">
    <rwdl:Transformation type="Conditional Concat">Conditional concat. See MT.COMBINED.MHTERM.</rwdl:Transformation>
    <rwdl:Source>
      <rwdl:Coordinate storage="FILESYSTEM" structure="TABULAR">
        <rwdl:URI>./nationwidechildrens_org_clinical_patient_brca.txt</rwdl:URI>
        <rwdl:RowKey column="bcr_patient_barcode">TCGA-A2-A0CK</rwdl:RowKey>
        <rwdl:ColumnName>histological_type</rwdl:ColumnName>
        <rwdl:SourceValue>Infiltrating Lobular Carcinoma</rwdl:SourceValue>
        <rwdl:Format>TSV</rwdl:Format>
      </rwdl:Coordinate>
    </rwdl:Source>
    <rwdl:Target>
      <rwdl:Coordinate storage="FILESYSTEM" structure="TABULAR">
        <rwdl:URI>./MH.txt</rwdl:URI>
        <rwdl:RowIndex>18</rwdl:RowIndex>
        <rwdl:ColumnName>MHTERM</rwdl:ColumnName>
        <rwdl:TargetValue>Infiltrating Lobular Carcinoma</rwdl:TargetValue>
        <rwdl:Format>TSV</rwdl:Format>
      </rwdl:Coordinate>
    </rwdl:Target>
  </rwdl:MapID>
  <rwdl:MapID uuid="dd33f808-45ef-5f98-b431-35f1deec04a9" MethodDefOID="MT.COMBINED.MHDECOD">
    <rwdl:Transformation type="Lookup">ICD-O-3 code to text via lookup. See MT.COMBINED.MHDECOD.</rwdl:Transformation>
    <rwdl:Source>
      <rwdl:Coordinate storage="FILESYSTEM" structure="TABULAR">
        <rwdl:URI>./nationwidechildrens_org_clinical_patient_brca.txt</rwdl:URI>
        <rwdl:RowKey column="bcr_patient_barcode">TCGA-A2-A0CK</rwdl:RowKey>
        <rwdl:ColumnName>icd_o_3_histology</rwdl:ColumnName>
        <rwdl:SourceValue>8520/3</rwdl:SourceValue>
        <rwdl:Format>TSV</rwdl:Format>
      </rwdl:Coordinate>
    </rwdl:Source>
    <rwdl:Target>
      <rwdl:Coordinate storage="FILESYSTEM" structure="TABULAR">
        <rwdl:URI>./MH.txt</rwdl:URI>
        <rwdl:RowIndex>18</rwdl:RowIndex>
        <rwdl:ColumnName>MHDECOD</rwdl:ColumnName>
        <rwdl:TargetValue>Lobular carcinoma, NOS</rwdl:TargetValue>
        <rwdl:Format>TSV</rwdl:Format>
      </rwdl:Coordinate>
    </rwdl:Target>
  </rwdl:MapID>
  <rwdl:MapID uuid="06a2130c-8df2-5a49-abc0-c07d465501fc" MethodDefOID="MT.COMBINED.MHSTDTC">
    <rwdl:Transformation type="ISO8601 Year or Blank">Year-only ISO8601; blank if '[Not Available]'.</rwdl:Transformation>
    <rwdl:Source>
      <rwdl:Coordinate storage="FILESYSTEM" structure="TABULAR">
        <rwdl:URI>./nationwidechildrens_org_clinical_patient_brca.txt</rwdl:URI>
        <rwdl:RowKey column="bcr_patient_barcode">TCGA-A2-A0CK</rwdl:RowKey>
        <rwdl:ColumnName>initial_pathologic_dx_year</rwdl:ColumnName>
        <rwdl:SourceValue>2001</rwdl:SourceValue>
        <rwdl:Format>TSV</rwdl:Format>
      </rwdl:Coordinate>
    </rwdl:Source>
    <rwdl:Target>
      <rwdl:Coordinate storage="FILESYSTEM" structure="TABULAR">
        <rwdl:URI>./MH.txt</rwdl:URI>
        <rwdl:RowIndex>18</rwdl:RowIndex>
        <rwdl:ColumnName>MHSTDTC</rwdl:ColumnName>
        <rwdl:TargetValue>2001</rwdl:TargetValue>
        <rwdl:Format>TSV</rwdl:Format>
      </rwdl:Coordinate>
    </rwdl:Target>
  </rwdl:MapID>
  <rwdl:MapID uuid="b0c6f665-b6a0-57a5-b3fa-3db16f71be5f" MethodDefOID="MT.COMBINED.MHDTC">
    <rwdl:Transformation type="ISO8601 Conversion">YYYY-M-D to zero-padded YYYY-MM-DD.</rwdl:Transformation>
    <rwdl:Source>
      <rwdl:Coordinate storage="FILESYSTEM" structure="TABULAR">
        <rwdl:URI>./nationwidechildrens_org_clinical_patient_brca.txt</rwdl:URI>
        <rwdl:RowKey column="bcr_patient_barcode">TCGA-A2-A0CK</rwdl:RowKey>
        <rwdl:ColumnName>form_completion_date</rwdl:ColumnName>
        <rwdl:SourceValue>2012-5-21</rwdl:SourceValue>
        <rwdl:Format>TSV</rwdl:Format>
      </rwdl:Coordinate>
    </rwdl:Source>
    <rwdl:Target>
      <rwdl:Coordinate storage="FILESYSTEM" structure="TABULAR">
        <rwdl:URI>./MH.txt</rwdl:URI>
        <rwdl:RowIndex>18</rwdl:RowIndex>
        <rwdl:ColumnName>MHDTC</rwdl:ColumnName>
        <rwdl:TargetValue>2012-05-21</rwdl:TargetValue>
        <rwdl:Format>TSV</rwdl:Format>
      </rwdl:Coordinate>
    </rwdl:Target>
  </rwdl:MapID>
  <rwdl:MapID uuid="2b510c09-5ffa-5cbc-a879-15549f437b45" MethodDefOID="MT.MHSTDY.DAYSPLUS1">
    <rwdl:Transformation type="Derivation">MHSTDY = source + 1.</rwdl:Transformation>
    <rwdl:Source>
      <rwdl:Coordinate storage="FILESYSTEM" structure="TABULAR">
        <rwdl:URI>./nationwidechildrens_org_clinical_patient_brca.txt</rwdl:URI>
        <rwdl:RowKey column="bcr_patient_barcode">TCGA-A2-A0CK</rwdl:RowKey>
        <rwdl:ColumnName>days_to_initial_pathologic_diagnosis</rwdl:ColumnName>
        <rwdl:SourceValue>0</rwdl:SourceValue>
        <rwdl:Format>TSV</rwdl:Format>
      </rwdl:Coordinate>
    </rwdl:Source>
    <rwdl:Target>
      <rwdl:Coordinate storage="FILESYSTEM" structure="TABULAR">
        <rwdl:URI>./MH.txt</rwdl:URI>
        <rwdl:RowIndex>18</rwdl:RowIndex>
        <rwdl:ColumnName>MHSTDY</rwdl:ColumnName>
        <rwdl:TargetValue>1</rwdl:TargetValue>
        <rwdl:Format>TSV</rwdl:Format>
      </rwdl:Coordinate>
    </rwdl:Target>
  </rwdl:MapID>
  <rwdl:MapID uuid="fecb4ddb-99c7-5240-b301-f8bbe64371e0" MethodDefOID="MT.MHSTRTPT.CONDITIONAL">
    <rwdl:Transformation type="Conditional Assign">Populated 'BEFORE' iff source == '[Not Available]'. [Source '2001' — not triggered, target blank.]</rwdl:Transformation>
    <rwdl:Source>
      <rwdl:Coordinate storage="FILESYSTEM" structure="TABULAR">
        <rwdl:URI>./nationwidechildrens_org_clinical_patient_brca.txt</rwdl:URI>
        <rwdl:RowKey column="bcr_patient_barcode">TCGA-A2-A0CK</rwdl:RowKey>
        <rwdl:ColumnName>initial_pathologic_dx_year</rwdl:ColumnName>
        <rwdl:SourceValue>2001</rwdl:SourceValue>
        <rwdl:Format>TSV</rwdl:Format>
      </rwdl:Coordinate>
    </rwdl:Source>
    <rwdl:Target>
      <rwdl:Coordinate storage="FILESYSTEM" structure="TABULAR">
        <rwdl:URI>./MH.txt</rwdl:URI>
        <rwdl:RowIndex>18</rwdl:RowIndex>
        <rwdl:ColumnName>MHSTRTPT</rwdl:ColumnName>
        <rwdl:TargetValue />
        <rwdl:Format>TSV</rwdl:Format>
      </rwdl:Coordinate>
    </rwdl:Target>
  </rwdl:MapID>
  <rwdl:MapID uuid="f6e411d9-49cb-5797-83c1-b9054fb2b3b0" MethodDefOID="MT.MHSTRTPT.CONDITIONAL">
    <rwdl:Transformation type="Conditional Assign">Populated 'SCREENING' iff source == '[Not Available]'. [Source '2001' — not triggered, target blank.]</rwdl:Transformation>
    <rwdl:Source>
      <rwdl:Coordinate storage="FILESYSTEM" structure="TABULAR">
        <rwdl:URI>./nationwidechildrens_org_clinical_patient_brca.txt</rwdl:URI>
        <rwdl:RowKey column="bcr_patient_barcode">TCGA-A2-A0CK</rwdl:RowKey>
        <rwdl:ColumnName>initial_pathologic_dx_year</rwdl:ColumnName>
        <rwdl:SourceValue>2001</rwdl:SourceValue>
        <rwdl:Format>TSV</rwdl:Format>
      </rwdl:Coordinate>
    </rwdl:Source>
    <rwdl:Target>
      <rwdl:Coordinate storage="FILESYSTEM" structure="TABULAR">
        <rwdl:URI>./MH.txt</rwdl:URI>
        <rwdl:RowIndex>18</rwdl:RowIndex>
        <rwdl:ColumnName>MHSTTPT</rwdl:ColumnName>
        <rwdl:TargetValue />
        <rwdl:Format>TSV</rwdl:Format>
      </rwdl:Coordinate>
    </rwdl:Target>
  </rwdl:MapID>
  <rwdl:MapID uuid="a2a33917-0314-5f65-b90e-2a33df58a1eb">
    <rwdl:Transformation type="Direct Map">Direct copy of bcr_patient_barcode.</rwdl:Transformation>
    <rwdl:Source>
      <rwdl:Coordinate storage="FILESYSTEM" structure="TABULAR">
        <rwdl:URI>./nationwidechildrens_org_clinical_patient_brca.txt</rwdl:URI>
        <rwdl:RowKey column="bcr_patient_barcode">TCGA-A2-A0CL</rwdl:RowKey>
        <rwdl:ColumnName>bcr_patient_barcode</rwdl:ColumnName>
        <rwdl:SourceValue />
        <rwdl:Format>TSV</rwdl:Format>
      </rwdl:Coordinate>
    </rwdl:Source>
    <rwdl:Target>
      <rwdl:Coordinate storage="FILESYSTEM" structure="TABULAR">
        <rwdl:URI>./MH.txt</rwdl:URI>
        <rwdl:RowIndex>19</rwdl:RowIndex>
        <rwdl:ColumnName>USUBJID</rwdl:ColumnName>
        <rwdl:TargetValue>TCGA-A2-A0CL</rwdl:TargetValue>
        <rwdl:Format>TSV</rwdl:Format>
      </rwdl:Coordinate>
    </rwdl:Target>
  </rwdl:MapID>
  <rwdl:MapID uuid="a3c50c87-9958-59a5-8b2c-f898875851b5" MethodDefOID="MT.COMBINED.MHTERM">
    <rwdl:Transformation type="Conditional Concat">Conditional concat. See MT.COMBINED.MHTERM.</rwdl:Transformation>
    <rwdl:Source>
      <rwdl:Coordinate storage="FILESYSTEM" structure="TABULAR">
        <rwdl:URI>./nationwidechildrens_org_clinical_patient_brca.txt</rwdl:URI>
        <rwdl:RowKey column="bcr_patient_barcode">TCGA-A2-A0CL</rwdl:RowKey>
        <rwdl:ColumnName>histological_type</rwdl:ColumnName>
        <rwdl:SourceValue>Infiltrating Ductal Carcinoma</rwdl:SourceValue>
        <rwdl:Format>TSV</rwdl:Format>
      </rwdl:Coordinate>
    </rwdl:Source>
    <rwdl:Target>
      <rwdl:Coordinate storage="FILESYSTEM" structure="TABULAR">
        <rwdl:URI>./MH.txt</rwdl:URI>
        <rwdl:RowIndex>19</rwdl:RowIndex>
        <rwdl:ColumnName>MHTERM</rwdl:ColumnName>
        <rwdl:TargetValue>Infiltrating Ductal Carcinoma</rwdl:TargetValue>
        <rwdl:Format>TSV</rwdl:Format>
      </rwdl:Coordinate>
    </rwdl:Target>
  </rwdl:MapID>
  <rwdl:MapID uuid="61a2d5a5-6e0b-5323-ae1a-ac6422bb2e04" MethodDefOID="MT.COMBINED.MHDECOD">
    <rwdl:Transformation type="Lookup">ICD-O-3 code to text via lookup. See MT.COMBINED.MHDECOD.</rwdl:Transformation>
    <rwdl:Source>
      <rwdl:Coordinate storage="FILESYSTEM" structure="TABULAR">
        <rwdl:URI>./nationwidechildrens_org_clinical_patient_brca.txt</rwdl:URI>
        <rwdl:RowKey column="bcr_patient_barcode">TCGA-A2-A0CL</rwdl:RowKey>
        <rwdl:ColumnName>icd_o_3_histology</rwdl:ColumnName>
        <rwdl:SourceValue>8500/3</rwdl:SourceValue>
        <rwdl:Format>TSV</rwdl:Format>
      </rwdl:Coordinate>
    </rwdl:Source>
    <rwdl:Target>
      <rwdl:Coordinate storage="FILESYSTEM" structure="TABULAR">
        <rwdl:URI>./MH.txt</rwdl:URI>
        <rwdl:RowIndex>19</rwdl:RowIndex>
        <rwdl:ColumnName>MHDECOD</rwdl:ColumnName>
        <rwdl:TargetValue>Infiltrating duct carcinoma, NOS</rwdl:TargetValue>
        <rwdl:Format>TSV</rwdl:Format>
      </rwdl:Coordinate>
    </rwdl:Target>
  </rwdl:MapID>
  <rwdl:MapID uuid="8eb1920b-59a3-5e3c-85ca-6bc11567b8f1" MethodDefOID="MT.COMBINED.MHSTDTC">
    <rwdl:Transformation type="ISO8601 Year or Blank">Year-only ISO8601; blank if '[Not Available]'.</rwdl:Transformation>
    <rwdl:Source>
      <rwdl:Coordinate storage="FILESYSTEM" structure="TABULAR">
        <rwdl:URI>./nationwidechildrens_org_clinical_patient_brca.txt</rwdl:URI>
        <rwdl:RowKey column="bcr_patient_barcode">TCGA-A2-A0CL</rwdl:RowKey>
        <rwdl:ColumnName>initial_pathologic_dx_year</rwdl:ColumnName>
        <rwdl:SourceValue>2006</rwdl:SourceValue>
        <rwdl:Format>TSV</rwdl:Format>
      </rwdl:Coordinate>
    </rwdl:Source>
    <rwdl:Target>
      <rwdl:Coordinate storage="FILESYSTEM" structure="TABULAR">
        <rwdl:URI>./MH.txt</rwdl:URI>
        <rwdl:RowIndex>19</rwdl:RowIndex>
        <rwdl:ColumnName>MHSTDTC</rwdl:ColumnName>
        <rwdl:TargetValue>2006</rwdl:TargetValue>
        <rwdl:Format>TSV</rwdl:Format>
      </rwdl:Coordinate>
    </rwdl:Target>
  </rwdl:MapID>
  <rwdl:MapID uuid="8ea15448-e73e-52b8-90fc-7f83c380454e" MethodDefOID="MT.COMBINED.MHDTC">
    <rwdl:Transformation type="ISO8601 Conversion">YYYY-M-D to zero-padded YYYY-MM-DD.</rwdl:Transformation>
    <rwdl:Source>
      <rwdl:Coordinate storage="FILESYSTEM" structure="TABULAR">
        <rwdl:URI>./nationwidechildrens_org_clinical_patient_brca.txt</rwdl:URI>
        <rwdl:RowKey column="bcr_patient_barcode">TCGA-A2-A0CL</rwdl:RowKey>
        <rwdl:ColumnName>form_completion_date</rwdl:ColumnName>
        <rwdl:SourceValue>2011-1-28</rwdl:SourceValue>
        <rwdl:Format>TSV</rwdl:Format>
      </rwdl:Coordinate>
    </rwdl:Source>
    <rwdl:Target>
      <rwdl:Coordinate storage="FILESYSTEM" structure="TABULAR">
        <rwdl:URI>./MH.txt</rwdl:URI>
        <rwdl:RowIndex>19</rwdl:RowIndex>
        <rwdl:ColumnName>MHDTC</rwdl:ColumnName>
        <rwdl:TargetValue>2011-01-28</rwdl:TargetValue>
        <rwdl:Format>TSV</rwdl:Format>
      </rwdl:Coordinate>
    </rwdl:Target>
  </rwdl:MapID>
  <rwdl:MapID uuid="7e574a04-7fbe-5a4a-8542-92d5c2c113ba" MethodDefOID="MT.MHSTDY.DAYSPLUS1">
    <rwdl:Transformation type="Derivation">MHSTDY = source + 1.</rwdl:Transformation>
    <rwdl:Source>
      <rwdl:Coordinate storage="FILESYSTEM" structure="TABULAR">
        <rwdl:URI>./nationwidechildrens_org_clinical_patient_brca.txt</rwdl:URI>
        <rwdl:RowKey column="bcr_patient_barcode">TCGA-A2-A0CL</rwdl:RowKey>
        <rwdl:ColumnName>days_to_initial_pathologic_diagnosis</rwdl:ColumnName>
        <rwdl:SourceValue>0</rwdl:SourceValue>
        <rwdl:Format>TSV</rwdl:Format>
      </rwdl:Coordinate>
    </rwdl:Source>
    <rwdl:Target>
      <rwdl:Coordinate storage="FILESYSTEM" structure="TABULAR">
        <rwdl:URI>./MH.txt</rwdl:URI>
        <rwdl:RowIndex>19</rwdl:RowIndex>
        <rwdl:ColumnName>MHSTDY</rwdl:ColumnName>
        <rwdl:TargetValue>1</rwdl:TargetValue>
        <rwdl:Format>TSV</rwdl:Format>
      </rwdl:Coordinate>
    </rwdl:Target>
  </rwdl:MapID>
  <rwdl:MapID uuid="ab9c2638-3ee8-5bed-b9af-12370726c117" MethodDefOID="MT.MHSTRTPT.CONDITIONAL">
    <rwdl:Transformation type="Conditional Assign">Populated 'BEFORE' iff source == '[Not Available]'. [Source '2006' — not triggered, target blank.]</rwdl:Transformation>
    <rwdl:Source>
      <rwdl:Coordinate storage="FILESYSTEM" structure="TABULAR">
        <rwdl:URI>./nationwidechildrens_org_clinical_patient_brca.txt</rwdl:URI>
        <rwdl:RowKey column="bcr_patient_barcode">TCGA-A2-A0CL</rwdl:RowKey>
        <rwdl:ColumnName>initial_pathologic_dx_year</rwdl:ColumnName>
        <rwdl:SourceValue>2006</rwdl:SourceValue>
        <rwdl:Format>TSV</rwdl:Format>
      </rwdl:Coordinate>
    </rwdl:Source>
    <rwdl:Target>
      <rwdl:Coordinate storage="FILESYSTEM" structure="TABULAR">
        <rwdl:URI>./MH.txt</rwdl:URI>
        <rwdl:RowIndex>19</rwdl:RowIndex>
        <rwdl:ColumnName>MHSTRTPT</rwdl:ColumnName>
        <rwdl:TargetValue />
        <rwdl:Format>TSV</rwdl:Format>
      </rwdl:Coordinate>
    </rwdl:Target>
  </rwdl:MapID>
  <rwdl:MapID uuid="ffb71444-dd0d-5180-b84d-e908a87c8b75" MethodDefOID="MT.MHSTRTPT.CONDITIONAL">
    <rwdl:Transformation type="Conditional Assign">Populated 'SCREENING' iff source == '[Not Available]'. [Source '2006' — not triggered, target blank.]</rwdl:Transformation>
    <rwdl:Source>
      <rwdl:Coordinate storage="FILESYSTEM" structure="TABULAR">
        <rwdl:URI>./nationwidechildrens_org_clinical_patient_brca.txt</rwdl:URI>
        <rwdl:RowKey column="bcr_patient_barcode">TCGA-A2-A0CL</rwdl:RowKey>
        <rwdl:ColumnName>initial_pathologic_dx_year</rwdl:ColumnName>
        <rwdl:SourceValue>2006</rwdl:SourceValue>
        <rwdl:Format>TSV</rwdl:Format>
      </rwdl:Coordinate>
    </rwdl:Source>
    <rwdl:Target>
      <rwdl:Coordinate storage="FILESYSTEM" structure="TABULAR">
        <rwdl:URI>./MH.txt</rwdl:URI>
        <rwdl:RowIndex>19</rwdl:RowIndex>
        <rwdl:ColumnName>MHSTTPT</rwdl:ColumnName>
        <rwdl:TargetValue />
        <rwdl:Format>TSV</rwdl:Format>
      </rwdl:Coordinate>
    </rwdl:Target>
  </rwdl:MapID>
  <rwdl:MapID uuid="19f8ad98-3a60-5977-aa8e-670ddc4893e5">
    <rwdl:Transformation type="Direct Map">Direct copy of bcr_patient_barcode.</rwdl:Transformation>
    <rwdl:Source>
      <rwdl:Coordinate storage="FILESYSTEM" structure="TABULAR">
        <rwdl:URI>./nationwidechildrens_org_clinical_patient_brca.txt</rwdl:URI>
        <rwdl:RowKey column="bcr_patient_barcode">TCGA-A2-A0CM</rwdl:RowKey>
        <rwdl:ColumnName>bcr_patient_barcode</rwdl:ColumnName>
        <rwdl:SourceValue />
        <rwdl:Format>TSV</rwdl:Format>
      </rwdl:Coordinate>
    </rwdl:Source>
    <rwdl:Target>
      <rwdl:Coordinate storage="FILESYSTEM" structure="TABULAR">
        <rwdl:URI>./MH.txt</rwdl:URI>
        <rwdl:RowIndex>20</rwdl:RowIndex>
        <rwdl:ColumnName>USUBJID</rwdl:ColumnName>
        <rwdl:TargetValue>TCGA-A2-A0CM</rwdl:TargetValue>
        <rwdl:Format>TSV</rwdl:Format>
      </rwdl:Coordinate>
    </rwdl:Target>
  </rwdl:MapID>
  <rwdl:MapID uuid="b400ab21-ddae-5a01-be33-3f61382e2a72" MethodDefOID="MT.COMBINED.MHTERM">
    <rwdl:Transformation type="Conditional Concat">Conditional concat. See MT.COMBINED.MHTERM.</rwdl:Transformation>
    <rwdl:Source>
      <rwdl:Coordinate storage="FILESYSTEM" structure="TABULAR">
        <rwdl:URI>./nationwidechildrens_org_clinical_patient_brca.txt</rwdl:URI>
        <rwdl:RowKey column="bcr_patient_barcode">TCGA-A2-A0CM</rwdl:RowKey>
        <rwdl:ColumnName>histological_type</rwdl:ColumnName>
        <rwdl:SourceValue>Infiltrating Ductal Carcinoma</rwdl:SourceValue>
        <rwdl:Format>TSV</rwdl:Format>
      </rwdl:Coordinate>
    </rwdl:Source>
    <rwdl:Target>
      <rwdl:Coordinate storage="FILESYSTEM" structure="TABULAR">
        <rwdl:URI>./MH.txt</rwdl:URI>
        <rwdl:RowIndex>20</rwdl:RowIndex>
        <rwdl:ColumnName>MHTERM</rwdl:ColumnName>
        <rwdl:TargetValue>Infiltrating Ductal Carcinoma</rwdl:TargetValue>
        <rwdl:Format>TSV</rwdl:Format>
      </rwdl:Coordinate>
    </rwdl:Target>
  </rwdl:MapID>
  <rwdl:MapID uuid="88b9d668-5bd9-5753-bfa3-3591a68a8368" MethodDefOID="MT.COMBINED.MHDECOD">
    <rwdl:Transformation type="Lookup">ICD-O-3 code to text via lookup. See MT.COMBINED.MHDECOD.</rwdl:Transformation>
    <rwdl:Source>
      <rwdl:Coordinate storage="FILESYSTEM" structure="TABULAR">
        <rwdl:URI>./nationwidechildrens_org_clinical_patient_brca.txt</rwdl:URI>
        <rwdl:RowKey column="bcr_patient_barcode">TCGA-A2-A0CM</rwdl:RowKey>
        <rwdl:ColumnName>icd_o_3_histology</rwdl:ColumnName>
        <rwdl:SourceValue>8500/3</rwdl:SourceValue>
        <rwdl:Format>TSV</rwdl:Format>
      </rwdl:Coordinate>
    </rwdl:Source>
    <rwdl:Target>
      <rwdl:Coordinate storage="FILESYSTEM" structure="TABULAR">
        <rwdl:URI>./MH.txt</rwdl:URI>
        <rwdl:RowIndex>20</rwdl:RowIndex>
        <rwdl:ColumnName>MHDECOD</rwdl:ColumnName>
        <rwdl:TargetValue>Infiltrating duct carcinoma, NOS</rwdl:TargetValue>
        <rwdl:Format>TSV</rwdl:Format>
      </rwdl:Coordinate>
    </rwdl:Target>
  </rwdl:MapID>
  <rwdl:MapID uuid="78f3c5c1-7912-59c8-85ba-3c8268b3ed30" MethodDefOID="MT.COMBINED.MHSTDTC">
    <rwdl:Transformation type="ISO8601 Year or Blank">Year-only ISO8601; blank if '[Not Available]'.</rwdl:Transformation>
    <rwdl:Source>
      <rwdl:Coordinate storage="FILESYSTEM" structure="TABULAR">
        <rwdl:URI>./nationwidechildrens_org_clinical_patient_brca.txt</rwdl:URI>
        <rwdl:RowKey column="bcr_patient_barcode">TCGA-A2-A0CM</rwdl:RowKey>
        <rwdl:ColumnName>initial_pathologic_dx_year</rwdl:ColumnName>
        <rwdl:SourceValue>2003</rwdl:SourceValue>
        <rwdl:Format>TSV</rwdl:Format>
      </rwdl:Coordinate>
    </rwdl:Source>
    <rwdl:Target>
      <rwdl:Coordinate storage="FILESYSTEM" structure="TABULAR">
        <rwdl:URI>./MH.txt</rwdl:URI>
        <rwdl:RowIndex>20</rwdl:RowIndex>
        <rwdl:ColumnName>MHSTDTC</rwdl:ColumnName>
        <rwdl:TargetValue>2003</rwdl:TargetValue>
        <rwdl:Format>TSV</rwdl:Format>
      </rwdl:Coordinate>
    </rwdl:Target>
  </rwdl:MapID>
  <rwdl:MapID uuid="99e4fe3c-4dd7-597e-bcf3-47fd5f6b7787" MethodDefOID="MT.COMBINED.MHDTC">
    <rwdl:Transformation type="ISO8601 Conversion">YYYY-M-D to zero-padded YYYY-MM-DD.</rwdl:Transformation>
    <rwdl:Source>
      <rwdl:Coordinate storage="FILESYSTEM" structure="TABULAR">
        <rwdl:URI>./nationwidechildrens_org_clinical_patient_brca.txt</rwdl:URI>
        <rwdl:RowKey column="bcr_patient_barcode">TCGA-A2-A0CM</rwdl:RowKey>
        <rwdl:ColumnName>form_completion_date</rwdl:ColumnName>
        <rwdl:SourceValue>2010-9-6</rwdl:SourceValue>
        <rwdl:Format>TSV</rwdl:Format>
      </rwdl:Coordinate>
    </rwdl:Source>
    <rwdl:Target>
      <rwdl:Coordinate storage="FILESYSTEM" structure="TABULAR">
        <rwdl:URI>./MH.txt</rwdl:URI>
        <rwdl:RowIndex>20</rwdl:RowIndex>
        <rwdl:ColumnName>MHDTC</rwdl:ColumnName>
        <rwdl:TargetValue>2010-09-06</rwdl:TargetValue>
        <rwdl:Format>TSV</rwdl:Format>
      </rwdl:Coordinate>
    </rwdl:Target>
  </rwdl:MapID>
  <rwdl:MapID uuid="02f11e94-c64b-543d-ac8e-be51da71707f" MethodDefOID="MT.MHSTDY.DAYSPLUS1">
    <rwdl:Transformation type="Derivation">MHSTDY = source + 1.</rwdl:Transformation>
    <rwdl:Source>
      <rwdl:Coordinate storage="FILESYSTEM" structure="TABULAR">
        <rwdl:URI>./nationwidechildrens_org_clinical_patient_brca.txt</rwdl:URI>
        <rwdl:RowKey column="bcr_patient_barcode">TCGA-A2-A0CM</rwdl:RowKey>
        <rwdl:ColumnName>days_to_initial_pathologic_diagnosis</rwdl:ColumnName>
        <rwdl:SourceValue>0</rwdl:SourceValue>
        <rwdl:Format>TSV</rwdl:Format>
      </rwdl:Coordinate>
    </rwdl:Source>
    <rwdl:Target>
      <rwdl:Coordinate storage="FILESYSTEM" structure="TABULAR">
        <rwdl:URI>./MH.txt</rwdl:URI>
        <rwdl:RowIndex>20</rwdl:RowIndex>
        <rwdl:ColumnName>MHSTDY</rwdl:ColumnName>
        <rwdl:TargetValue>1</rwdl:TargetValue>
        <rwdl:Format>TSV</rwdl:Format>
      </rwdl:Coordinate>
    </rwdl:Target>
  </rwdl:MapID>
  <rwdl:MapID uuid="681c8fe6-a0c4-5e79-a296-6b773c4e2863" MethodDefOID="MT.MHSTRTPT.CONDITIONAL">
    <rwdl:Transformation type="Conditional Assign">Populated 'BEFORE' iff source == '[Not Available]'. [Source '2003' — not triggered, target blank.]</rwdl:Transformation>
    <rwdl:Source>
      <rwdl:Coordinate storage="FILESYSTEM" structure="TABULAR">
        <rwdl:URI>./nationwidechildrens_org_clinical_patient_brca.txt</rwdl:URI>
        <rwdl:RowKey column="bcr_patient_barcode">TCGA-A2-A0CM</rwdl:RowKey>
        <rwdl:ColumnName>initial_pathologic_dx_year</rwdl:ColumnName>
        <rwdl:SourceValue>2003</rwdl:SourceValue>
        <rwdl:Format>TSV</rwdl:Format>
      </rwdl:Coordinate>
    </rwdl:Source>
    <rwdl:Target>
      <rwdl:Coordinate storage="FILESYSTEM" structure="TABULAR">
        <rwdl:URI>./MH.txt</rwdl:URI>
        <rwdl:RowIndex>20</rwdl:RowIndex>
        <rwdl:ColumnName>MHSTRTPT</rwdl:ColumnName>
        <rwdl:TargetValue />
        <rwdl:Format>TSV</rwdl:Format>
      </rwdl:Coordinate>
    </rwdl:Target>
  </rwdl:MapID>
  <rwdl:MapID uuid="7d3e02a3-ffe4-530d-b20e-fd9d03289fb7" MethodDefOID="MT.MHSTRTPT.CONDITIONAL">
    <rwdl:Transformation type="Conditional Assign">Populated 'SCREENING' iff source == '[Not Available]'. [Source '2003' — not triggered, target blank.]</rwdl:Transformation>
    <rwdl:Source>
      <rwdl:Coordinate storage="FILESYSTEM" structure="TABULAR">
        <rwdl:URI>./nationwidechildrens_org_clinical_patient_brca.txt</rwdl:URI>
        <rwdl:RowKey column="bcr_patient_barcode">TCGA-A2-A0CM</rwdl:RowKey>
        <rwdl:ColumnName>initial_pathologic_dx_year</rwdl:ColumnName>
        <rwdl:SourceValue>2003</rwdl:SourceValue>
        <rwdl:Format>TSV</rwdl:Format>
      </rwdl:Coordinate>
    </rwdl:Source>
    <rwdl:Target>
      <rwdl:Coordinate storage="FILESYSTEM" structure="TABULAR">
        <rwdl:URI>./MH.txt</rwdl:URI>
        <rwdl:RowIndex>20</rwdl:RowIndex>
        <rwdl:ColumnName>MHSTTPT</rwdl:ColumnName>
        <rwdl:TargetValue />
        <rwdl:Format>TSV</rwdl:Format>
      </rwdl:Coordinate>
    </rwdl:Target>
  </rwdl:MapID>
  <rwdl:MapID uuid="bfb8f4e7-8fbb-52c3-95d8-83e7647da340">
    <rwdl:Transformation type="Direct Map">Direct copy of bcr_patient_barcode.</rwdl:Transformation>
    <rwdl:Source>
      <rwdl:Coordinate storage="FILESYSTEM" structure="TABULAR">
        <rwdl:URI>./nationwidechildrens_org_clinical_patient_brca.txt</rwdl:URI>
        <rwdl:RowKey column="bcr_patient_barcode">TCGA-A2-A0CP</rwdl:RowKey>
        <rwdl:ColumnName>bcr_patient_barcode</rwdl:ColumnName>
        <rwdl:SourceValue />
        <rwdl:Format>TSV</rwdl:Format>
      </rwdl:Coordinate>
    </rwdl:Source>
    <rwdl:Target>
      <rwdl:Coordinate storage="FILESYSTEM" structure="TABULAR">
        <rwdl:URI>./MH.txt</rwdl:URI>
        <rwdl:RowIndex>21</rwdl:RowIndex>
        <rwdl:ColumnName>USUBJID</rwdl:ColumnName>
        <rwdl:TargetValue>TCGA-A2-A0CP</rwdl:TargetValue>
        <rwdl:Format>TSV</rwdl:Format>
      </rwdl:Coordinate>
    </rwdl:Target>
  </rwdl:MapID>
  <rwdl:MapID uuid="436eeb62-fdaf-5bbe-8d70-26d2e852cf7a" MethodDefOID="MT.COMBINED.MHTERM">
    <rwdl:Transformation type="Conditional Concat">Conditional concat. See MT.COMBINED.MHTERM.</rwdl:Transformation>
    <rwdl:Source>
      <rwdl:Coordinate storage="FILESYSTEM" structure="TABULAR">
        <rwdl:URI>./nationwidechildrens_org_clinical_patient_brca.txt</rwdl:URI>
        <rwdl:RowKey column="bcr_patient_barcode">TCGA-A2-A0CP</rwdl:RowKey>
        <rwdl:ColumnName>histological_type</rwdl:ColumnName>
        <rwdl:SourceValue>Infiltrating Ductal Carcinoma</rwdl:SourceValue>
        <rwdl:Format>TSV</rwdl:Format>
      </rwdl:Coordinate>
    </rwdl:Source>
    <rwdl:Target>
      <rwdl:Coordinate storage="FILESYSTEM" structure="TABULAR">
        <rwdl:URI>./MH.txt</rwdl:URI>
        <rwdl:RowIndex>21</rwdl:RowIndex>
        <rwdl:ColumnName>MHTERM</rwdl:ColumnName>
        <rwdl:TargetValue>Infiltrating Ductal Carcinoma</rwdl:TargetValue>
        <rwdl:Format>TSV</rwdl:Format>
      </rwdl:Coordinate>
    </rwdl:Target>
  </rwdl:MapID>
  <rwdl:MapID uuid="4b874e14-0899-5062-a08c-17511a1e7c19" MethodDefOID="MT.COMBINED.MHDECOD">
    <rwdl:Transformation type="Lookup">ICD-O-3 code to text via lookup. See MT.COMBINED.MHDECOD.</rwdl:Transformation>
    <rwdl:Source>
      <rwdl:Coordinate storage="FILESYSTEM" structure="TABULAR">
        <rwdl:URI>./nationwidechildrens_org_clinical_patient_brca.txt</rwdl:URI>
        <rwdl:RowKey column="bcr_patient_barcode">TCGA-A2-A0CP</rwdl:RowKey>
        <rwdl:ColumnName>icd_o_3_histology</rwdl:ColumnName>
        <rwdl:SourceValue>8500/3</rwdl:SourceValue>
        <rwdl:Format>TSV</rwdl:Format>
      </rwdl:Coordinate>
    </rwdl:Source>
    <rwdl:Target>
      <rwdl:Coordinate storage="FILESYSTEM" structure="TABULAR">
        <rwdl:URI>./MH.txt</rwdl:URI>
        <rwdl:RowIndex>21</rwdl:RowIndex>
        <rwdl:ColumnName>MHDECOD</rwdl:ColumnName>
        <rwdl:TargetValue>Infiltrating duct carcinoma, NOS</rwdl:TargetValue>
        <rwdl:Format>TSV</rwdl:Format>
      </rwdl:Coordinate>
    </rwdl:Target>
  </rwdl:MapID>
  <rwdl:MapID uuid="15397eae-9bc6-5e91-870d-d4ebffcfaab0" MethodDefOID="MT.COMBINED.MHSTDTC">
    <rwdl:Transformation type="ISO8601 Year or Blank">Year-only ISO8601; blank if '[Not Available]'.</rwdl:Transformation>
    <rwdl:Source>
      <rwdl:Coordinate storage="FILESYSTEM" structure="TABULAR">
        <rwdl:URI>./nationwidechildrens_org_clinical_patient_brca.txt</rwdl:URI>
        <rwdl:RowKey column="bcr_patient_barcode">TCGA-A2-A0CP</rwdl:RowKey>
        <rwdl:ColumnName>initial_pathologic_dx_year</rwdl:ColumnName>
        <rwdl:SourceValue>2003</rwdl:SourceValue>
        <rwdl:Format>TSV</rwdl:Format>
      </rwdl:Coordinate>
    </rwdl:Source>
    <rwdl:Target>
      <rwdl:Coordinate storage="FILESYSTEM" structure="TABULAR">
        <rwdl:URI>./MH.txt</rwdl:URI>
        <rwdl:RowIndex>21</rwdl:RowIndex>
        <rwdl:ColumnName>MHSTDTC</rwdl:ColumnName>
        <rwdl:TargetValue>2003</rwdl:TargetValue>
        <rwdl:Format>TSV</rwdl:Format>
      </rwdl:Coordinate>
    </rwdl:Target>
  </rwdl:MapID>
  <rwdl:MapID uuid="4cfb2f47-7f91-55c6-8739-4f1024cb0c41" MethodDefOID="MT.COMBINED.MHDTC">
    <rwdl:Transformation type="ISO8601 Conversion">YYYY-M-D to zero-padded YYYY-MM-DD.</rwdl:Transformation>
    <rwdl:Source>
      <rwdl:Coordinate storage="FILESYSTEM" structure="TABULAR">
        <rwdl:URI>./nationwidechildrens_org_clinical_patient_brca.txt</rwdl:URI>
        <rwdl:RowKey column="bcr_patient_barcode">TCGA-A2-A0CP</rwdl:RowKey>
        <rwdl:ColumnName>form_completion_date</rwdl:ColumnName>
        <rwdl:SourceValue>2010-9-8</rwdl:SourceValue>
        <rwdl:Format>TSV</rwdl:Format>
      </rwdl:Coordinate>
    </rwdl:Source>
    <rwdl:Target>
      <rwdl:Coordinate storage="FILESYSTEM" structure="TABULAR">
        <rwdl:URI>./MH.txt</rwdl:URI>
        <rwdl:RowIndex>21</rwdl:RowIndex>
        <rwdl:ColumnName>MHDTC</rwdl:ColumnName>
        <rwdl:TargetValue>2010-09-08</rwdl:TargetValue>
        <rwdl:Format>TSV</rwdl:Format>
      </rwdl:Coordinate>
    </rwdl:Target>
  </rwdl:MapID>
  <rwdl:MapID uuid="0a97dfef-1649-5207-82ea-5870311e9b49" MethodDefOID="MT.MHSTDY.DAYSPLUS1">
    <rwdl:Transformation type="Derivation">MHSTDY = source + 1.</rwdl:Transformation>
    <rwdl:Source>
      <rwdl:Coordinate storage="FILESYSTEM" structure="TABULAR">
        <rwdl:URI>./nationwidechildrens_org_clinical_patient_brca.txt</rwdl:URI>
        <rwdl:RowKey column="bcr_patient_barcode">TCGA-A2-A0CP</rwdl:RowKey>
        <rwdl:ColumnName>days_to_initial_pathologic_diagnosis</rwdl:ColumnName>
        <rwdl:SourceValue>0</rwdl:SourceValue>
        <rwdl:Format>TSV</rwdl:Format>
      </rwdl:Coordinate>
    </rwdl:Source>
    <rwdl:Target>
      <rwdl:Coordinate storage="FILESYSTEM" structure="TABULAR">
        <rwdl:URI>./MH.txt</rwdl:URI>
        <rwdl:RowIndex>21</rwdl:RowIndex>
        <rwdl:ColumnName>MHSTDY</rwdl:ColumnName>
        <rwdl:TargetValue>1</rwdl:TargetValue>
        <rwdl:Format>TSV</rwdl:Format>
      </rwdl:Coordinate>
    </rwdl:Target>
  </rwdl:MapID>
  <rwdl:MapID uuid="fe99854f-c12f-5eb9-b59a-5c056e3339e7" MethodDefOID="MT.MHSTRTPT.CONDITIONAL">
    <rwdl:Transformation type="Conditional Assign">Populated 'BEFORE' iff source == '[Not Available]'. [Source '2003' — not triggered, target blank.]</rwdl:Transformation>
    <rwdl:Source>
      <rwdl:Coordinate storage="FILESYSTEM" structure="TABULAR">
        <rwdl:URI>./nationwidechildrens_org_clinical_patient_brca.txt</rwdl:URI>
        <rwdl:RowKey column="bcr_patient_barcode">TCGA-A2-A0CP</rwdl:RowKey>
        <rwdl:ColumnName>initial_pathologic_dx_year</rwdl:ColumnName>
        <rwdl:SourceValue>2003</rwdl:SourceValue>
        <rwdl:Format>TSV</rwdl:Format>
      </rwdl:Coordinate>
    </rwdl:Source>
    <rwdl:Target>
      <rwdl:Coordinate storage="FILESYSTEM" structure="TABULAR">
        <rwdl:URI>./MH.txt</rwdl:URI>
        <rwdl:RowIndex>21</rwdl:RowIndex>
        <rwdl:ColumnName>MHSTRTPT</rwdl:ColumnName>
        <rwdl:TargetValue />
        <rwdl:Format>TSV</rwdl:Format>
      </rwdl:Coordinate>
    </rwdl:Target>
  </rwdl:MapID>
  <rwdl:MapID uuid="f1cb97b6-6dbf-534e-8d22-3033486516a8" MethodDefOID="MT.MHSTRTPT.CONDITIONAL">
    <rwdl:Transformation type="Conditional Assign">Populated 'SCREENING' iff source == '[Not Available]'. [Source '2003' — not triggered, target blank.]</rwdl:Transformation>
    <rwdl:Source>
      <rwdl:Coordinate storage="FILESYSTEM" structure="TABULAR">
        <rwdl:URI>./nationwidechildrens_org_clinical_patient_brca.txt</rwdl:URI>
        <rwdl:RowKey column="bcr_patient_barcode">TCGA-A2-A0CP</rwdl:RowKey>
        <rwdl:ColumnName>initial_pathologic_dx_year</rwdl:ColumnName>
        <rwdl:SourceValue>2003</rwdl:SourceValue>
        <rwdl:Format>TSV</rwdl:Format>
      </rwdl:Coordinate>
    </rwdl:Source>
    <rwdl:Target>
      <rwdl:Coordinate storage="FILESYSTEM" structure="TABULAR">
        <rwdl:URI>./MH.txt</rwdl:URI>
        <rwdl:RowIndex>21</rwdl:RowIndex>
        <rwdl:ColumnName>MHSTTPT</rwdl:ColumnName>
        <rwdl:TargetValue />
        <rwdl:Format>TSV</rwdl:Format>
      </rwdl:Coordinate>
    </rwdl:Target>
  </rwdl:MapID>
  <rwdl:MapID uuid="e0c5444e-bcd4-5eb6-a2f0-0198c9cc0399">
    <rwdl:Transformation type="Direct Map">Direct copy of bcr_patient_barcode.</rwdl:Transformation>
    <rwdl:Source>
      <rwdl:Coordinate storage="FILESYSTEM" structure="TABULAR">
        <rwdl:URI>./nationwidechildrens_org_clinical_patient_brca.txt</rwdl:URI>
        <rwdl:RowKey column="bcr_patient_barcode">TCGA-A2-A0CR</rwdl:RowKey>
        <rwdl:ColumnName>bcr_patient_barcode</rwdl:ColumnName>
        <rwdl:SourceValue />
        <rwdl:Format>TSV</rwdl:Format>
      </rwdl:Coordinate>
    </rwdl:Source>
    <rwdl:Target>
      <rwdl:Coordinate storage="FILESYSTEM" structure="TABULAR">
        <rwdl:URI>./MH.txt</rwdl:URI>
        <rwdl:RowIndex>22</rwdl:RowIndex>
        <rwdl:ColumnName>USUBJID</rwdl:ColumnName>
        <rwdl:TargetValue>TCGA-A2-A0CR</rwdl:TargetValue>
        <rwdl:Format>TSV</rwdl:Format>
      </rwdl:Coordinate>
    </rwdl:Target>
  </rwdl:MapID>
  <rwdl:MapID uuid="e61f75e8-4b22-526f-bb55-67a396fb8cb8" MethodDefOID="MT.COMBINED.MHTERM">
    <rwdl:Transformation type="Conditional Concat">Conditional concat. See MT.COMBINED.MHTERM.</rwdl:Transformation>
    <rwdl:Source>
      <rwdl:Coordinate storage="FILESYSTEM" structure="TABULAR">
        <rwdl:URI>./nationwidechildrens_org_clinical_patient_brca.txt</rwdl:URI>
        <rwdl:RowKey column="bcr_patient_barcode">TCGA-A2-A0CR</rwdl:RowKey>
        <rwdl:ColumnName>histological_type</rwdl:ColumnName>
        <rwdl:SourceValue>Infiltrating Lobular Carcinoma</rwdl:SourceValue>
        <rwdl:Format>TSV</rwdl:Format>
      </rwdl:Coordinate>
    </rwdl:Source>
    <rwdl:Target>
      <rwdl:Coordinate storage="FILESYSTEM" structure="TABULAR">
        <rwdl:URI>./MH.txt</rwdl:URI>
        <rwdl:RowIndex>22</rwdl:RowIndex>
        <rwdl:ColumnName>MHTERM</rwdl:ColumnName>
        <rwdl:TargetValue>Infiltrating Lobular Carcinoma</rwdl:TargetValue>
        <rwdl:Format>TSV</rwdl:Format>
      </rwdl:Coordinate>
    </rwdl:Target>
  </rwdl:MapID>
  <rwdl:MapID uuid="3cee7e83-250b-54cf-add1-5a48a3072c61" MethodDefOID="MT.COMBINED.MHDECOD">
    <rwdl:Transformation type="Lookup">ICD-O-3 code to text via lookup. See MT.COMBINED.MHDECOD.</rwdl:Transformation>
    <rwdl:Source>
      <rwdl:Coordinate storage="FILESYSTEM" structure="TABULAR">
        <rwdl:URI>./nationwidechildrens_org_clinical_patient_brca.txt</rwdl:URI>
        <rwdl:RowKey column="bcr_patient_barcode">TCGA-A2-A0CR</rwdl:RowKey>
        <rwdl:ColumnName>icd_o_3_histology</rwdl:ColumnName>
        <rwdl:SourceValue>8520/3</rwdl:SourceValue>
        <rwdl:Format>TSV</rwdl:Format>
      </rwdl:Coordinate>
    </rwdl:Source>
    <rwdl:Target>
      <rwdl:Coordinate storage="FILESYSTEM" structure="TABULAR">
        <rwdl:URI>./MH.txt</rwdl:URI>
        <rwdl:RowIndex>22</rwdl:RowIndex>
        <rwdl:ColumnName>MHDECOD</rwdl:ColumnName>
        <rwdl:TargetValue>Lobular carcinoma, NOS</rwdl:TargetValue>
        <rwdl:Format>TSV</rwdl:Format>
      </rwdl:Coordinate>
    </rwdl:Target>
  </rwdl:MapID>
  <rwdl:MapID uuid="03ab8aed-dafe-51f6-a9e7-d9713794d3a8" MethodDefOID="MT.COMBINED.MHSTDTC">
    <rwdl:Transformation type="ISO8601 Year or Blank">Year-only ISO8601; blank if '[Not Available]'.</rwdl:Transformation>
    <rwdl:Source>
      <rwdl:Coordinate storage="FILESYSTEM" structure="TABULAR">
        <rwdl:URI>./nationwidechildrens_org_clinical_patient_brca.txt</rwdl:URI>
        <rwdl:RowKey column="bcr_patient_barcode">TCGA-A2-A0CR</rwdl:RowKey>
        <rwdl:ColumnName>initial_pathologic_dx_year</rwdl:ColumnName>
        <rwdl:SourceValue>2004</rwdl:SourceValue>
        <rwdl:Format>TSV</rwdl:Format>
      </rwdl:Coordinate>
    </rwdl:Source>
    <rwdl:Target>
      <rwdl:Coordinate storage="FILESYSTEM" structure="TABULAR">
        <rwdl:URI>./MH.txt</rwdl:URI>
        <rwdl:RowIndex>22</rwdl:RowIndex>
        <rwdl:ColumnName>MHSTDTC</rwdl:ColumnName>
        <rwdl:TargetValue>2004</rwdl:TargetValue>
        <rwdl:Format>TSV</rwdl:Format>
      </rwdl:Coordinate>
    </rwdl:Target>
  </rwdl:MapID>
  <rwdl:MapID uuid="1c802d85-afc7-5478-961c-8201d6935d21" MethodDefOID="MT.COMBINED.MHDTC">
    <rwdl:Transformation type="ISO8601 Conversion">YYYY-M-D to zero-padded YYYY-MM-DD.</rwdl:Transformation>
    <rwdl:Source>
      <rwdl:Coordinate storage="FILESYSTEM" structure="TABULAR">
        <rwdl:URI>./nationwidechildrens_org_clinical_patient_brca.txt</rwdl:URI>
        <rwdl:RowKey column="bcr_patient_barcode">TCGA-A2-A0CR</rwdl:RowKey>
        <rwdl:ColumnName>form_completion_date</rwdl:ColumnName>
        <rwdl:SourceValue>2012-6-5</rwdl:SourceValue>
        <rwdl:Format>TSV</rwdl:Format>
      </rwdl:Coordinate>
    </rwdl:Source>
    <rwdl:Target>
      <rwdl:Coordinate storage="FILESYSTEM" structure="TABULAR">
        <rwdl:URI>./MH.txt</rwdl:URI>
        <rwdl:RowIndex>22</rwdl:RowIndex>
        <rwdl:ColumnName>MHDTC</rwdl:ColumnName>
        <rwdl:TargetValue>2012-06-05</rwdl:TargetValue>
        <rwdl:Format>TSV</rwdl:Format>
      </rwdl:Coordinate>
    </rwdl:Target>
  </rwdl:MapID>
  <rwdl:MapID uuid="6be3c723-4a4a-5eb6-b281-c5225d13eb93" MethodDefOID="MT.MHSTDY.DAYSPLUS1">
    <rwdl:Transformation type="Derivation">MHSTDY = source + 1.</rwdl:Transformation>
    <rwdl:Source>
      <rwdl:Coordinate storage="FILESYSTEM" structure="TABULAR">
        <rwdl:URI>./nationwidechildrens_org_clinical_patient_brca.txt</rwdl:URI>
        <rwdl:RowKey column="bcr_patient_barcode">TCGA-A2-A0CR</rwdl:RowKey>
        <rwdl:ColumnName>days_to_initial_pathologic_diagnosis</rwdl:ColumnName>
        <rwdl:SourceValue>0</rwdl:SourceValue>
        <rwdl:Format>TSV</rwdl:Format>
      </rwdl:Coordinate>
    </rwdl:Source>
    <rwdl:Target>
      <rwdl:Coordinate storage="FILESYSTEM" structure="TABULAR">
        <rwdl:URI>./MH.txt</rwdl:URI>
        <rwdl:RowIndex>22</rwdl:RowIndex>
        <rwdl:ColumnName>MHSTDY</rwdl:ColumnName>
        <rwdl:TargetValue>1</rwdl:TargetValue>
        <rwdl:Format>TSV</rwdl:Format>
      </rwdl:Coordinate>
    </rwdl:Target>
  </rwdl:MapID>
  <rwdl:MapID uuid="9d857822-02cb-5318-9365-31bc0a7bb9ea" MethodDefOID="MT.MHSTRTPT.CONDITIONAL">
    <rwdl:Transformation type="Conditional Assign">Populated 'BEFORE' iff source == '[Not Available]'. [Source '2004' — not triggered, target blank.]</rwdl:Transformation>
    <rwdl:Source>
      <rwdl:Coordinate storage="FILESYSTEM" structure="TABULAR">
        <rwdl:URI>./nationwidechildrens_org_clinical_patient_brca.txt</rwdl:URI>
        <rwdl:RowKey column="bcr_patient_barcode">TCGA-A2-A0CR</rwdl:RowKey>
        <rwdl:ColumnName>initial_pathologic_dx_year</rwdl:ColumnName>
        <rwdl:SourceValue>2004</rwdl:SourceValue>
        <rwdl:Format>TSV</rwdl:Format>
      </rwdl:Coordinate>
    </rwdl:Source>
    <rwdl:Target>
      <rwdl:Coordinate storage="FILESYSTEM" structure="TABULAR">
        <rwdl:URI>./MH.txt</rwdl:URI>
        <rwdl:RowIndex>22</rwdl:RowIndex>
        <rwdl:ColumnName>MHSTRTPT</rwdl:ColumnName>
        <rwdl:TargetValue />
        <rwdl:Format>TSV</rwdl:Format>
      </rwdl:Coordinate>
    </rwdl:Target>
  </rwdl:MapID>
  <rwdl:MapID uuid="dde2cce9-13cd-5cb6-aaf3-950d89ac0c56" MethodDefOID="MT.MHSTRTPT.CONDITIONAL">
    <rwdl:Transformation type="Conditional Assign">Populated 'SCREENING' iff source == '[Not Available]'. [Source '2004' — not triggered, target blank.]</rwdl:Transformation>
    <rwdl:Source>
      <rwdl:Coordinate storage="FILESYSTEM" structure="TABULAR">
        <rwdl:URI>./nationwidechildrens_org_clinical_patient_brca.txt</rwdl:URI>
        <rwdl:RowKey column="bcr_patient_barcode">TCGA-A2-A0CR</rwdl:RowKey>
        <rwdl:ColumnName>initial_pathologic_dx_year</rwdl:ColumnName>
        <rwdl:SourceValue>2004</rwdl:SourceValue>
        <rwdl:Format>TSV</rwdl:Format>
      </rwdl:Coordinate>
    </rwdl:Source>
    <rwdl:Target>
      <rwdl:Coordinate storage="FILESYSTEM" structure="TABULAR">
        <rwdl:URI>./MH.txt</rwdl:URI>
        <rwdl:RowIndex>22</rwdl:RowIndex>
        <rwdl:ColumnName>MHSTTPT</rwdl:ColumnName>
        <rwdl:TargetValue />
        <rwdl:Format>TSV</rwdl:Format>
      </rwdl:Coordinate>
    </rwdl:Target>
  </rwdl:MapID>
  <rwdl:MapID uuid="96b0f04f-e86a-5137-af35-b53d561bcd4b">
    <rwdl:Transformation type="Direct Map">Direct copy of bcr_patient_barcode.</rwdl:Transformation>
    <rwdl:Source>
      <rwdl:Coordinate storage="FILESYSTEM" structure="TABULAR">
        <rwdl:URI>./nationwidechildrens_org_clinical_patient_brca.txt</rwdl:URI>
        <rwdl:RowKey column="bcr_patient_barcode">TCGA-A2-A0CV</rwdl:RowKey>
        <rwdl:ColumnName>bcr_patient_barcode</rwdl:ColumnName>
        <rwdl:SourceValue />
        <rwdl:Format>TSV</rwdl:Format>
      </rwdl:Coordinate>
    </rwdl:Source>
    <rwdl:Target>
      <rwdl:Coordinate storage="FILESYSTEM" structure="TABULAR">
        <rwdl:URI>./MH.txt</rwdl:URI>
        <rwdl:RowIndex>23</rwdl:RowIndex>
        <rwdl:ColumnName>USUBJID</rwdl:ColumnName>
        <rwdl:TargetValue>TCGA-A2-A0CV</rwdl:TargetValue>
        <rwdl:Format>TSV</rwdl:Format>
      </rwdl:Coordinate>
    </rwdl:Target>
  </rwdl:MapID>
  <rwdl:MapID uuid="8985ee6c-0cdd-5225-9bf5-0429d9a82549" MethodDefOID="MT.COMBINED.MHTERM">
    <rwdl:Transformation type="Conditional Concat">Conditional concat. See MT.COMBINED.MHTERM.</rwdl:Transformation>
    <rwdl:Source>
      <rwdl:Coordinate storage="FILESYSTEM" structure="TABULAR">
        <rwdl:URI>./nationwidechildrens_org_clinical_patient_brca.txt</rwdl:URI>
        <rwdl:RowKey column="bcr_patient_barcode">TCGA-A2-A0CV</rwdl:RowKey>
        <rwdl:ColumnName>histological_type</rwdl:ColumnName>
        <rwdl:SourceValue>Infiltrating Ductal Carcinoma</rwdl:SourceValue>
        <rwdl:Format>TSV</rwdl:Format>
      </rwdl:Coordinate>
    </rwdl:Source>
    <rwdl:Target>
      <rwdl:Coordinate storage="FILESYSTEM" structure="TABULAR">
        <rwdl:URI>./MH.txt</rwdl:URI>
        <rwdl:RowIndex>23</rwdl:RowIndex>
        <rwdl:ColumnName>MHTERM</rwdl:ColumnName>
        <rwdl:TargetValue>Infiltrating Ductal Carcinoma</rwdl:TargetValue>
        <rwdl:Format>TSV</rwdl:Format>
      </rwdl:Coordinate>
    </rwdl:Target>
  </rwdl:MapID>
  <rwdl:MapID uuid="365e6872-1085-5b9c-a6e0-d67e545bc3ca" MethodDefOID="MT.COMBINED.MHDECOD">
    <rwdl:Transformation type="Lookup">ICD-O-3 code to text via lookup. See MT.COMBINED.MHDECOD.</rwdl:Transformation>
    <rwdl:Source>
      <rwdl:Coordinate storage="FILESYSTEM" structure="TABULAR">
        <rwdl:URI>./nationwidechildrens_org_clinical_patient_brca.txt</rwdl:URI>
        <rwdl:RowKey column="bcr_patient_barcode">TCGA-A2-A0CV</rwdl:RowKey>
        <rwdl:ColumnName>icd_o_3_histology</rwdl:ColumnName>
        <rwdl:SourceValue>8500/3</rwdl:SourceValue>
        <rwdl:Format>TSV</rwdl:Format>
      </rwdl:Coordinate>
    </rwdl:Source>
    <rwdl:Target>
      <rwdl:Coordinate storage="FILESYSTEM" structure="TABULAR">
        <rwdl:URI>./MH.txt</rwdl:URI>
        <rwdl:RowIndex>23</rwdl:RowIndex>
        <rwdl:ColumnName>MHDECOD</rwdl:ColumnName>
        <rwdl:TargetValue>Infiltrating duct carcinoma, NOS</rwdl:TargetValue>
        <rwdl:Format>TSV</rwdl:Format>
      </rwdl:Coordinate>
    </rwdl:Target>
  </rwdl:MapID>
  <rwdl:MapID uuid="6dd20b25-e2c5-5216-8472-56a116e40173" MethodDefOID="MT.COMBINED.MHSTDTC">
    <rwdl:Transformation type="ISO8601 Year or Blank">Year-only ISO8601; blank if '[Not Available]'.</rwdl:Transformation>
    <rwdl:Source>
      <rwdl:Coordinate storage="FILESYSTEM" structure="TABULAR">
        <rwdl:URI>./nationwidechildrens_org_clinical_patient_brca.txt</rwdl:URI>
        <rwdl:RowKey column="bcr_patient_barcode">TCGA-A2-A0CV</rwdl:RowKey>
        <rwdl:ColumnName>initial_pathologic_dx_year</rwdl:ColumnName>
        <rwdl:SourceValue>2005</rwdl:SourceValue>
        <rwdl:Format>TSV</rwdl:Format>
      </rwdl:Coordinate>
    </rwdl:Source>
    <rwdl:Target>
      <rwdl:Coordinate storage="FILESYSTEM" structure="TABULAR">
        <rwdl:URI>./MH.txt</rwdl:URI>
        <rwdl:RowIndex>23</rwdl:RowIndex>
        <rwdl:ColumnName>MHSTDTC</rwdl:ColumnName>
        <rwdl:TargetValue>2005</rwdl:TargetValue>
        <rwdl:Format>TSV</rwdl:Format>
      </rwdl:Coordinate>
    </rwdl:Target>
  </rwdl:MapID>
  <rwdl:MapID uuid="339a6eb2-891b-56a5-a0dc-6fe11cfc5943" MethodDefOID="MT.COMBINED.MHDTC">
    <rwdl:Transformation type="ISO8601 Conversion">YYYY-M-D to zero-padded YYYY-MM-DD.</rwdl:Transformation>
    <rwdl:Source>
      <rwdl:Coordinate storage="FILESYSTEM" structure="TABULAR">
        <rwdl:URI>./nationwidechildrens_org_clinical_patient_brca.txt</rwdl:URI>
        <rwdl:RowKey column="bcr_patient_barcode">TCGA-A2-A0CV</rwdl:RowKey>
        <rwdl:ColumnName>form_completion_date</rwdl:ColumnName>
        <rwdl:SourceValue>2011-1-28</rwdl:SourceValue>
        <rwdl:Format>TSV</rwdl:Format>
      </rwdl:Coordinate>
    </rwdl:Source>
    <rwdl:Target>
      <rwdl:Coordinate storage="FILESYSTEM" structure="TABULAR">
        <rwdl:URI>./MH.txt</rwdl:URI>
        <rwdl:RowIndex>23</rwdl:RowIndex>
        <rwdl:ColumnName>MHDTC</rwdl:ColumnName>
        <rwdl:TargetValue>2011-01-28</rwdl:TargetValue>
        <rwdl:Format>TSV</rwdl:Format>
      </rwdl:Coordinate>
    </rwdl:Target>
  </rwdl:MapID>
  <rwdl:MapID uuid="2ab568b2-15ea-5572-b77e-d9b1ffbf6a98" MethodDefOID="MT.MHSTDY.DAYSPLUS1">
    <rwdl:Transformation type="Derivation">MHSTDY = source + 1.</rwdl:Transformation>
    <rwdl:Source>
      <rwdl:Coordinate storage="FILESYSTEM" structure="TABULAR">
        <rwdl:URI>./nationwidechildrens_org_clinical_patient_brca.txt</rwdl:URI>
        <rwdl:RowKey column="bcr_patient_barcode">TCGA-A2-A0CV</rwdl:RowKey>
        <rwdl:ColumnName>days_to_initial_pathologic_diagnosis</rwdl:ColumnName>
        <rwdl:SourceValue>0</rwdl:SourceValue>
        <rwdl:Format>TSV</rwdl:Format>
      </rwdl:Coordinate>
    </rwdl:Source>
    <rwdl:Target>
      <rwdl:Coordinate storage="FILESYSTEM" structure="TABULAR">
        <rwdl:URI>./MH.txt</rwdl:URI>
        <rwdl:RowIndex>23</rwdl:RowIndex>
        <rwdl:ColumnName>MHSTDY</rwdl:ColumnName>
        <rwdl:TargetValue>1</rwdl:TargetValue>
        <rwdl:Format>TSV</rwdl:Format>
      </rwdl:Coordinate>
    </rwdl:Target>
  </rwdl:MapID>
  <rwdl:MapID uuid="1c7620d2-d8e2-5e40-be68-5b75136e5ded" MethodDefOID="MT.MHSTRTPT.CONDITIONAL">
    <rwdl:Transformation type="Conditional Assign">Populated 'BEFORE' iff source == '[Not Available]'. [Source '2005' — not triggered, target blank.]</rwdl:Transformation>
    <rwdl:Source>
      <rwdl:Coordinate storage="FILESYSTEM" structure="TABULAR">
        <rwdl:URI>./nationwidechildrens_org_clinical_patient_brca.txt</rwdl:URI>
        <rwdl:RowKey column="bcr_patient_barcode">TCGA-A2-A0CV</rwdl:RowKey>
        <rwdl:ColumnName>initial_pathologic_dx_year</rwdl:ColumnName>
        <rwdl:SourceValue>2005</rwdl:SourceValue>
        <rwdl:Format>TSV</rwdl:Format>
      </rwdl:Coordinate>
    </rwdl:Source>
    <rwdl:Target>
      <rwdl:Coordinate storage="FILESYSTEM" structure="TABULAR">
        <rwdl:URI>./MH.txt</rwdl:URI>
        <rwdl:RowIndex>23</rwdl:RowIndex>
        <rwdl:ColumnName>MHSTRTPT</rwdl:ColumnName>
        <rwdl:TargetValue />
        <rwdl:Format>TSV</rwdl:Format>
      </rwdl:Coordinate>
    </rwdl:Target>
  </rwdl:MapID>
  <rwdl:MapID uuid="6909b18d-5b0a-595e-97ab-ebf3130cc5de" MethodDefOID="MT.MHSTRTPT.CONDITIONAL">
    <rwdl:Transformation type="Conditional Assign">Populated 'SCREENING' iff source == '[Not Available]'. [Source '2005' — not triggered, target blank.]</rwdl:Transformation>
    <rwdl:Source>
      <rwdl:Coordinate storage="FILESYSTEM" structure="TABULAR">
        <rwdl:URI>./nationwidechildrens_org_clinical_patient_brca.txt</rwdl:URI>
        <rwdl:RowKey column="bcr_patient_barcode">TCGA-A2-A0CV</rwdl:RowKey>
        <rwdl:ColumnName>initial_pathologic_dx_year</rwdl:ColumnName>
        <rwdl:SourceValue>2005</rwdl:SourceValue>
        <rwdl:Format>TSV</rwdl:Format>
      </rwdl:Coordinate>
    </rwdl:Source>
    <rwdl:Target>
      <rwdl:Coordinate storage="FILESYSTEM" structure="TABULAR">
        <rwdl:URI>./MH.txt</rwdl:URI>
        <rwdl:RowIndex>23</rwdl:RowIndex>
        <rwdl:ColumnName>MHSTTPT</rwdl:ColumnName>
        <rwdl:TargetValue />
        <rwdl:Format>TSV</rwdl:Format>
      </rwdl:Coordinate>
    </rwdl:Target>
  </rwdl:MapID>
  <rwdl:MapID uuid="2bc26dc7-d225-5c65-9fb5-1332cd8b84b7">
    <rwdl:Transformation type="Direct Map">Direct copy of bcr_patient_barcode.</rwdl:Transformation>
    <rwdl:Source>
      <rwdl:Coordinate storage="FILESYSTEM" structure="TABULAR">
        <rwdl:URI>./nationwidechildrens_org_clinical_patient_brca.txt</rwdl:URI>
        <rwdl:RowKey column="bcr_patient_barcode">TCGA-A2-A0CX</rwdl:RowKey>
        <rwdl:ColumnName>bcr_patient_barcode</rwdl:ColumnName>
        <rwdl:SourceValue />
        <rwdl:Format>TSV</rwdl:Format>
      </rwdl:Coordinate>
    </rwdl:Source>
    <rwdl:Target>
      <rwdl:Coordinate storage="FILESYSTEM" structure="TABULAR">
        <rwdl:URI>./MH.txt</rwdl:URI>
        <rwdl:RowIndex>24</rwdl:RowIndex>
        <rwdl:ColumnName>USUBJID</rwdl:ColumnName>
        <rwdl:TargetValue>TCGA-A2-A0CX</rwdl:TargetValue>
        <rwdl:Format>TSV</rwdl:Format>
      </rwdl:Coordinate>
    </rwdl:Target>
  </rwdl:MapID>
  <rwdl:MapID uuid="26483cf4-63f8-53b0-b6c9-e78c6dd33d54" MethodDefOID="MT.COMBINED.MHTERM">
    <rwdl:Transformation type="Conditional Concat">Conditional concat. See MT.COMBINED.MHTERM.</rwdl:Transformation>
    <rwdl:Source>
      <rwdl:Coordinate storage="FILESYSTEM" structure="TABULAR">
        <rwdl:URI>./nationwidechildrens_org_clinical_patient_brca.txt</rwdl:URI>
        <rwdl:RowKey column="bcr_patient_barcode">TCGA-A2-A0CX</rwdl:RowKey>
        <rwdl:ColumnName>histological_type</rwdl:ColumnName>
        <rwdl:SourceValue>Infiltrating Ductal Carcinoma</rwdl:SourceValue>
        <rwdl:Format>TSV</rwdl:Format>
      </rwdl:Coordinate>
    </rwdl:Source>
    <rwdl:Target>
      <rwdl:Coordinate storage="FILESYSTEM" structure="TABULAR">
        <rwdl:URI>./MH.txt</rwdl:URI>
        <rwdl:RowIndex>24</rwdl:RowIndex>
        <rwdl:ColumnName>MHTERM</rwdl:ColumnName>
        <rwdl:TargetValue>Infiltrating Ductal Carcinoma</rwdl:TargetValue>
        <rwdl:Format>TSV</rwdl:Format>
      </rwdl:Coordinate>
    </rwdl:Target>
  </rwdl:MapID>
  <rwdl:MapID uuid="3d1eb1c2-7b9a-526e-96c9-124a937f1113" MethodDefOID="MT.COMBINED.MHDECOD">
    <rwdl:Transformation type="Lookup">ICD-O-3 code to text via lookup. See MT.COMBINED.MHDECOD.</rwdl:Transformation>
    <rwdl:Source>
      <rwdl:Coordinate storage="FILESYSTEM" structure="TABULAR">
        <rwdl:URI>./nationwidechildrens_org_clinical_patient_brca.txt</rwdl:URI>
        <rwdl:RowKey column="bcr_patient_barcode">TCGA-A2-A0CX</rwdl:RowKey>
        <rwdl:ColumnName>icd_o_3_histology</rwdl:ColumnName>
        <rwdl:SourceValue>8500/3</rwdl:SourceValue>
        <rwdl:Format>TSV</rwdl:Format>
      </rwdl:Coordinate>
    </rwdl:Source>
    <rwdl:Target>
      <rwdl:Coordinate storage="FILESYSTEM" structure="TABULAR">
        <rwdl:URI>./MH.txt</rwdl:URI>
        <rwdl:RowIndex>24</rwdl:RowIndex>
        <rwdl:ColumnName>MHDECOD</rwdl:ColumnName>
        <rwdl:TargetValue>Infiltrating duct carcinoma, NOS</rwdl:TargetValue>
        <rwdl:Format>TSV</rwdl:Format>
      </rwdl:Coordinate>
    </rwdl:Target>
  </rwdl:MapID>
  <rwdl:MapID uuid="bf86bc49-259b-5250-9194-90b80d3697f9" MethodDefOID="MT.COMBINED.MHSTDTC">
    <rwdl:Transformation type="ISO8601 Year or Blank">Year-only ISO8601; blank if '[Not Available]'.</rwdl:Transformation>
    <rwdl:Source>
      <rwdl:Coordinate storage="FILESYSTEM" structure="TABULAR">
        <rwdl:URI>./nationwidechildrens_org_clinical_patient_brca.txt</rwdl:URI>
        <rwdl:RowKey column="bcr_patient_barcode">TCGA-A2-A0CX</rwdl:RowKey>
        <rwdl:ColumnName>initial_pathologic_dx_year</rwdl:ColumnName>
        <rwdl:SourceValue>2006</rwdl:SourceValue>
        <rwdl:Format>TSV</rwdl:Format>
      </rwdl:Coordinate>
    </rwdl:Source>
    <rwdl:Target>
      <rwdl:Coordinate storage="FILESYSTEM" structure="TABULAR">
        <rwdl:URI>./MH.txt</rwdl:URI>
        <rwdl:RowIndex>24</rwdl:RowIndex>
        <rwdl:ColumnName>MHSTDTC</rwdl:ColumnName>
        <rwdl:TargetValue>2006</rwdl:TargetValue>
        <rwdl:Format>TSV</rwdl:Format>
      </rwdl:Coordinate>
    </rwdl:Target>
  </rwdl:MapID>
  <rwdl:MapID uuid="2216e33a-1e6e-56d8-975b-19ce3c09cd35" MethodDefOID="MT.COMBINED.MHDTC">
    <rwdl:Transformation type="ISO8601 Conversion">YYYY-M-D to zero-padded YYYY-MM-DD.</rwdl:Transformation>
    <rwdl:Source>
      <rwdl:Coordinate storage="FILESYSTEM" structure="TABULAR">
        <rwdl:URI>./nationwidechildrens_org_clinical_patient_brca.txt</rwdl:URI>
        <rwdl:RowKey column="bcr_patient_barcode">TCGA-A2-A0CX</rwdl:RowKey>
        <rwdl:ColumnName>form_completion_date</rwdl:ColumnName>
        <rwdl:SourceValue>2010-9-10</rwdl:SourceValue>
        <rwdl:Format>TSV</rwdl:Format>
      </rwdl:Coordinate>
    </rwdl:Source>
    <rwdl:Target>
      <rwdl:Coordinate storage="FILESYSTEM" structure="TABULAR">
        <rwdl:URI>./MH.txt</rwdl:URI>
        <rwdl:RowIndex>24</rwdl:RowIndex>
        <rwdl:ColumnName>MHDTC</rwdl:ColumnName>
        <rwdl:TargetValue>2010-09-10</rwdl:TargetValue>
        <rwdl:Format>TSV</rwdl:Format>
      </rwdl:Coordinate>
    </rwdl:Target>
  </rwdl:MapID>
  <rwdl:MapID uuid="8e1bf89d-7807-55c3-b80d-7d040355309a" MethodDefOID="MT.MHSTDY.DAYSPLUS1">
    <rwdl:Transformation type="Derivation">MHSTDY = source + 1.</rwdl:Transformation>
    <rwdl:Source>
      <rwdl:Coordinate storage="FILESYSTEM" structure="TABULAR">
        <rwdl:URI>./nationwidechildrens_org_clinical_patient_brca.txt</rwdl:URI>
        <rwdl:RowKey column="bcr_patient_barcode">TCGA-A2-A0CX</rwdl:RowKey>
        <rwdl:ColumnName>days_to_initial_pathologic_diagnosis</rwdl:ColumnName>
        <rwdl:SourceValue>0</rwdl:SourceValue>
        <rwdl:Format>TSV</rwdl:Format>
      </rwdl:Coordinate>
    </rwdl:Source>
    <rwdl:Target>
      <rwdl:Coordinate storage="FILESYSTEM" structure="TABULAR">
        <rwdl:URI>./MH.txt</rwdl:URI>
        <rwdl:RowIndex>24</rwdl:RowIndex>
        <rwdl:ColumnName>MHSTDY</rwdl:ColumnName>
        <rwdl:TargetValue>1</rwdl:TargetValue>
        <rwdl:Format>TSV</rwdl:Format>
      </rwdl:Coordinate>
    </rwdl:Target>
  </rwdl:MapID>
  <rwdl:MapID uuid="266695a0-9eae-5e84-9d37-7d11bd67cbb5" MethodDefOID="MT.MHSTRTPT.CONDITIONAL">
    <rwdl:Transformation type="Conditional Assign">Populated 'BEFORE' iff source == '[Not Available]'. [Source '2006' — not triggered, target blank.]</rwdl:Transformation>
    <rwdl:Source>
      <rwdl:Coordinate storage="FILESYSTEM" structure="TABULAR">
        <rwdl:URI>./nationwidechildrens_org_clinical_patient_brca.txt</rwdl:URI>
        <rwdl:RowKey column="bcr_patient_barcode">TCGA-A2-A0CX</rwdl:RowKey>
        <rwdl:ColumnName>initial_pathologic_dx_year</rwdl:ColumnName>
        <rwdl:SourceValue>2006</rwdl:SourceValue>
        <rwdl:Format>TSV</rwdl:Format>
      </rwdl:Coordinate>
    </rwdl:Source>
    <rwdl:Target>
      <rwdl:Coordinate storage="FILESYSTEM" structure="TABULAR">
        <rwdl:URI>./MH.txt</rwdl:URI>
        <rwdl:RowIndex>24</rwdl:RowIndex>
        <rwdl:ColumnName>MHSTRTPT</rwdl:ColumnName>
        <rwdl:TargetValue />
        <rwdl:Format>TSV</rwdl:Format>
      </rwdl:Coordinate>
    </rwdl:Target>
  </rwdl:MapID>
  <rwdl:MapID uuid="71187967-8fbf-588b-abd7-0bb847e3e586" MethodDefOID="MT.MHSTRTPT.CONDITIONAL">
    <rwdl:Transformation type="Conditional Assign">Populated 'SCREENING' iff source == '[Not Available]'. [Source '2006' — not triggered, target blank.]</rwdl:Transformation>
    <rwdl:Source>
      <rwdl:Coordinate storage="FILESYSTEM" structure="TABULAR">
        <rwdl:URI>./nationwidechildrens_org_clinical_patient_brca.txt</rwdl:URI>
        <rwdl:RowKey column="bcr_patient_barcode">TCGA-A2-A0CX</rwdl:RowKey>
        <rwdl:ColumnName>initial_pathologic_dx_year</rwdl:ColumnName>
        <rwdl:SourceValue>2006</rwdl:SourceValue>
        <rwdl:Format>TSV</rwdl:Format>
      </rwdl:Coordinate>
    </rwdl:Source>
    <rwdl:Target>
      <rwdl:Coordinate storage="FILESYSTEM" structure="TABULAR">
        <rwdl:URI>./MH.txt</rwdl:URI>
        <rwdl:RowIndex>24</rwdl:RowIndex>
        <rwdl:ColumnName>MHSTTPT</rwdl:ColumnName>
        <rwdl:TargetValue />
        <rwdl:Format>TSV</rwdl:Format>
      </rwdl:Coordinate>
    </rwdl:Target>
  </rwdl:MapID>
  <rwdl:MapID uuid="ec639332-52c1-5007-92c6-91372b9be42c">
    <rwdl:Transformation type="Direct Map">Direct copy of bcr_patient_barcode.</rwdl:Transformation>
    <rwdl:Source>
      <rwdl:Coordinate storage="FILESYSTEM" structure="TABULAR">
        <rwdl:URI>./nationwidechildrens_org_clinical_patient_brca.txt</rwdl:URI>
        <rwdl:RowKey column="bcr_patient_barcode">TCGA-A2-A0CZ</rwdl:RowKey>
        <rwdl:ColumnName>bcr_patient_barcode</rwdl:ColumnName>
        <rwdl:SourceValue />
        <rwdl:Format>TSV</rwdl:Format>
      </rwdl:Coordinate>
    </rwdl:Source>
    <rwdl:Target>
      <rwdl:Coordinate storage="FILESYSTEM" structure="TABULAR">
        <rwdl:URI>./MH.txt</rwdl:URI>
        <rwdl:RowIndex>25</rwdl:RowIndex>
        <rwdl:ColumnName>USUBJID</rwdl:ColumnName>
        <rwdl:TargetValue>TCGA-A2-A0CZ</rwdl:TargetValue>
        <rwdl:Format>TSV</rwdl:Format>
      </rwdl:Coordinate>
    </rwdl:Target>
  </rwdl:MapID>
  <rwdl:MapID uuid="1ff98b1c-151e-5757-824d-cecfa0400ae7" MethodDefOID="MT.COMBINED.MHTERM">
    <rwdl:Transformation type="Conditional Concat">Conditional concat. See MT.COMBINED.MHTERM.</rwdl:Transformation>
    <rwdl:Source>
      <rwdl:Coordinate storage="FILESYSTEM" structure="TABULAR">
        <rwdl:URI>./nationwidechildrens_org_clinical_patient_brca.txt</rwdl:URI>
        <rwdl:RowKey column="bcr_patient_barcode">TCGA-A2-A0CZ</rwdl:RowKey>
        <rwdl:ColumnName>histological_type</rwdl:ColumnName>
        <rwdl:SourceValue>Infiltrating Ductal Carcinoma</rwdl:SourceValue>
        <rwdl:Format>TSV</rwdl:Format>
      </rwdl:Coordinate>
    </rwdl:Source>
    <rwdl:Target>
      <rwdl:Coordinate storage="FILESYSTEM" structure="TABULAR">
        <rwdl:URI>./MH.txt</rwdl:URI>
        <rwdl:RowIndex>25</rwdl:RowIndex>
        <rwdl:ColumnName>MHTERM</rwdl:ColumnName>
        <rwdl:TargetValue>Infiltrating Ductal Carcinoma</rwdl:TargetValue>
        <rwdl:Format>TSV</rwdl:Format>
      </rwdl:Coordinate>
    </rwdl:Target>
  </rwdl:MapID>
  <rwdl:MapID uuid="0d4a9434-7506-5a36-8e68-02359dbff56b" MethodDefOID="MT.COMBINED.MHDECOD">
    <rwdl:Transformation type="Lookup">ICD-O-3 code to text via lookup. See MT.COMBINED.MHDECOD.</rwdl:Transformation>
    <rwdl:Source>
      <rwdl:Coordinate storage="FILESYSTEM" structure="TABULAR">
        <rwdl:URI>./nationwidechildrens_org_clinical_patient_brca.txt</rwdl:URI>
        <rwdl:RowKey column="bcr_patient_barcode">TCGA-A2-A0CZ</rwdl:RowKey>
        <rwdl:ColumnName>icd_o_3_histology</rwdl:ColumnName>
        <rwdl:SourceValue>8500/3</rwdl:SourceValue>
        <rwdl:Format>TSV</rwdl:Format>
      </rwdl:Coordinate>
    </rwdl:Source>
    <rwdl:Target>
      <rwdl:Coordinate storage="FILESYSTEM" structure="TABULAR">
        <rwdl:URI>./MH.txt</rwdl:URI>
        <rwdl:RowIndex>25</rwdl:RowIndex>
        <rwdl:ColumnName>MHDECOD</rwdl:ColumnName>
        <rwdl:TargetValue>Infiltrating duct carcinoma, NOS</rwdl:TargetValue>
        <rwdl:Format>TSV</rwdl:Format>
      </rwdl:Coordinate>
    </rwdl:Target>
  </rwdl:MapID>
  <rwdl:MapID uuid="7d0429e1-29d0-5a63-a94c-11f75b72c2d2" MethodDefOID="MT.COMBINED.MHSTDTC">
    <rwdl:Transformation type="ISO8601 Year or Blank">Year-only ISO8601; blank if '[Not Available]'.</rwdl:Transformation>
    <rwdl:Source>
      <rwdl:Coordinate storage="FILESYSTEM" structure="TABULAR">
        <rwdl:URI>./nationwidechildrens_org_clinical_patient_brca.txt</rwdl:URI>
        <rwdl:RowKey column="bcr_patient_barcode">TCGA-A2-A0CZ</rwdl:RowKey>
        <rwdl:ColumnName>initial_pathologic_dx_year</rwdl:ColumnName>
        <rwdl:SourceValue>2007</rwdl:SourceValue>
        <rwdl:Format>TSV</rwdl:Format>
      </rwdl:Coordinate>
    </rwdl:Source>
    <rwdl:Target>
      <rwdl:Coordinate storage="FILESYSTEM" structure="TABULAR">
        <rwdl:URI>./MH.txt</rwdl:URI>
        <rwdl:RowIndex>25</rwdl:RowIndex>
        <rwdl:ColumnName>MHSTDTC</rwdl:ColumnName>
        <rwdl:TargetValue>2007</rwdl:TargetValue>
        <rwdl:Format>TSV</rwdl:Format>
      </rwdl:Coordinate>
    </rwdl:Target>
  </rwdl:MapID>
  <rwdl:MapID uuid="8c59d82e-7d1a-55f1-8310-4a37f52c03db" MethodDefOID="MT.COMBINED.MHDTC">
    <rwdl:Transformation type="ISO8601 Conversion">YYYY-M-D to zero-padded YYYY-MM-DD.</rwdl:Transformation>
    <rwdl:Source>
      <rwdl:Coordinate storage="FILESYSTEM" structure="TABULAR">
        <rwdl:URI>./nationwidechildrens_org_clinical_patient_brca.txt</rwdl:URI>
        <rwdl:RowKey column="bcr_patient_barcode">TCGA-A2-A0CZ</rwdl:RowKey>
        <rwdl:ColumnName>form_completion_date</rwdl:ColumnName>
        <rwdl:SourceValue>2010-9-14</rwdl:SourceValue>
        <rwdl:Format>TSV</rwdl:Format>
      </rwdl:Coordinate>
    </rwdl:Source>
    <rwdl:Target>
      <rwdl:Coordinate storage="FILESYSTEM" structure="TABULAR">
        <rwdl:URI>./MH.txt</rwdl:URI>
        <rwdl:RowIndex>25</rwdl:RowIndex>
        <rwdl:ColumnName>MHDTC</rwdl:ColumnName>
        <rwdl:TargetValue>2010-09-14</rwdl:TargetValue>
        <rwdl:Format>TSV</rwdl:Format>
      </rwdl:Coordinate>
    </rwdl:Target>
  </rwdl:MapID>
  <rwdl:MapID uuid="d213e24a-a42b-580a-9dbe-4ac534e11cc1" MethodDefOID="MT.MHSTDY.DAYSPLUS1">
    <rwdl:Transformation type="Derivation">MHSTDY = source + 1.</rwdl:Transformation>
    <rwdl:Source>
      <rwdl:Coordinate storage="FILESYSTEM" structure="TABULAR">
        <rwdl:URI>./nationwidechildrens_org_clinical_patient_brca.txt</rwdl:URI>
        <rwdl:RowKey column="bcr_patient_barcode">TCGA-A2-A0CZ</rwdl:RowKey>
        <rwdl:ColumnName>days_to_initial_pathologic_diagnosis</rwdl:ColumnName>
        <rwdl:SourceValue>0</rwdl:SourceValue>
        <rwdl:Format>TSV</rwdl:Format>
      </rwdl:Coordinate>
    </rwdl:Source>
    <rwdl:Target>
      <rwdl:Coordinate storage="FILESYSTEM" structure="TABULAR">
        <rwdl:URI>./MH.txt</rwdl:URI>
        <rwdl:RowIndex>25</rwdl:RowIndex>
        <rwdl:ColumnName>MHSTDY</rwdl:ColumnName>
        <rwdl:TargetValue>1</rwdl:TargetValue>
        <rwdl:Format>TSV</rwdl:Format>
      </rwdl:Coordinate>
    </rwdl:Target>
  </rwdl:MapID>
  <rwdl:MapID uuid="e4c878bb-991d-5f4b-92f3-70f6af2fc8b3" MethodDefOID="MT.MHSTRTPT.CONDITIONAL">
    <rwdl:Transformation type="Conditional Assign">Populated 'BEFORE' iff source == '[Not Available]'. [Source '2007' — not triggered, target blank.]</rwdl:Transformation>
    <rwdl:Source>
      <rwdl:Coordinate storage="FILESYSTEM" structure="TABULAR">
        <rwdl:URI>./nationwidechildrens_org_clinical_patient_brca.txt</rwdl:URI>
        <rwdl:RowKey column="bcr_patient_barcode">TCGA-A2-A0CZ</rwdl:RowKey>
        <rwdl:ColumnName>initial_pathologic_dx_year</rwdl:ColumnName>
        <rwdl:SourceValue>2007</rwdl:SourceValue>
        <rwdl:Format>TSV</rwdl:Format>
      </rwdl:Coordinate>
    </rwdl:Source>
    <rwdl:Target>
      <rwdl:Coordinate storage="FILESYSTEM" structure="TABULAR">
        <rwdl:URI>./MH.txt</rwdl:URI>
        <rwdl:RowIndex>25</rwdl:RowIndex>
        <rwdl:ColumnName>MHSTRTPT</rwdl:ColumnName>
        <rwdl:TargetValue />
        <rwdl:Format>TSV</rwdl:Format>
      </rwdl:Coordinate>
    </rwdl:Target>
  </rwdl:MapID>
  <rwdl:MapID uuid="dbae96e4-1178-5ba6-b6a8-3bff150b1c7e" MethodDefOID="MT.MHSTRTPT.CONDITIONAL">
    <rwdl:Transformation type="Conditional Assign">Populated 'SCREENING' iff source == '[Not Available]'. [Source '2007' — not triggered, target blank.]</rwdl:Transformation>
    <rwdl:Source>
      <rwdl:Coordinate storage="FILESYSTEM" structure="TABULAR">
        <rwdl:URI>./nationwidechildrens_org_clinical_patient_brca.txt</rwdl:URI>
        <rwdl:RowKey column="bcr_patient_barcode">TCGA-A2-A0CZ</rwdl:RowKey>
        <rwdl:ColumnName>initial_pathologic_dx_year</rwdl:ColumnName>
        <rwdl:SourceValue>2007</rwdl:SourceValue>
        <rwdl:Format>TSV</rwdl:Format>
      </rwdl:Coordinate>
    </rwdl:Source>
    <rwdl:Target>
      <rwdl:Coordinate storage="FILESYSTEM" structure="TABULAR">
        <rwdl:URI>./MH.txt</rwdl:URI>
        <rwdl:RowIndex>25</rwdl:RowIndex>
