<?xml version="1.0" encoding="UTF-8"?>
<ODM xmlns="http://www.cdisc.org/ns/odm/v1.3"
     xmlns:def="http://www.cdisc.org/ns/def/v2.1"
     xmlns:rwdl="http://www.cdisc.org/ns/rwdl/v1.0"
     xmlns:xlink="http://www.w3.org/1999/xlink"
     xmlns:xsi="http://www.w3.org/2001/XMLSchema-instance"
     xsi:schemaLocation="http://www.cdisc.org/ns/odm/v1.3 https://www.cdisc.org/standards/odm/v1.3.2/ODM1-3-2.xsd"
     FileType="Snapshot"
     FileOID="Define.Example2"
     CreationDateTime="2026-03-19T00:00:00"
     AsOfDateTime="2026-03-19T00:00:00"
     Originator="CDISC RWD Lineage Project"
     SourceSystem="Example"
     SourceSystemVersion="1.0"
     def:Context="Submission">

  <Study OID="Study.Example2">
    <GlobalVariables>
      <StudyName>RWD Lineage Example 2</StudyName>
      <StudyDescription>Example 2: AE and LB domains with EHR lab source lineage</StudyDescription>
      <ProtocolName>RWDL-EX2</ProtocolName>
    </GlobalVariables>
    <MetaDataVersion OID="MDV.Example2" Name="Example 2 Define-XML" def:DefineVersion="2.1.0">

      <def:Standards>
        <def:Standard OID="STD.1" Name="SDTM" Version="1.9" Type="Tabulation" Status="Final"/>
      </def:Standards>

      <!-- MethodDef elements describing transformations referenced by rwd-lineage.xml -->
      <MethodDef OID="MT.LABVALPARSING" Name="Lab result value and unit parsing" Type="Computation">
        <Description>
          <TranslatedText xml:lang="en">Parse the source lab result string, which contains a combined numeric value and unit (e.g., "0.35 µkat/L"), to extract the numeric result into LBORRES and the unit string into LBORRESU as separate target variables.</TranslatedText>
        </Description>
      </MethodDef>

      <MethodDef OID="MT.ELEVATEDLIVERENZYME" Name="Elevated liver enzyme adverse event derivation" Type="Computation">
        <Description>
          <TranslatedText xml:lang="en">Evaluate standardized liver enzyme results (ALT, AST, ALP) against their reference range upper limits. When any result exceeds the upper limit of normal (LBNRIND = HIGH), derive an adverse event record for elevated liver enzymes in the AE domain using the lab test name, standardized result, and collection date.</TranslatedText>
        </Description>
      </MethodDef>

      <MethodDef OID="MT.UNITCONV" Name="Lab result unit conversion to standard units" Type="Computation">
        <Description>
          <TranslatedText xml:lang="en">Convert the original lab result value from source units (µkat/L) to the submission standard units (U/L) by applying the appropriate conversion factor (1 µkat/L = 60.0 U/L). The converted numeric value is placed in LBSTRES and the standard unit string in LBSTRESU.</TranslatedText>
        </Description>
      </MethodDef>

      <!-- RWD Lineage reference: def:leaf declares the file; rwdl:LineageRef points to it -->
      <def:leaf ID="LF.RWDLINEAGE" xlink:href="rwd-lineage.xml">
        <def:title>RWD Lineage Traceability</def:title>
      </def:leaf>
      <rwdl:LineageRef leafID="LF.RWDLINEAGE"/>

      <ItemGroupDef OID="IG.AE" Name="AE" Repeating="Yes" IsReferenceData="No" SASDatasetName="AE"
                    def:Structure="One record per subject per adverse event"
                    def:StandardOID="STD.1" def:ArchiveLocationID="LF.AE">
        <Description>
          <TranslatedText>Adverse Events</TranslatedText>
        </Description>
        <ItemRef ItemOID="IT.AE.STUDYID" Mandatory="Yes"/>
        <ItemRef ItemOID="IT.AE.DOMAIN" Mandatory="Yes"/>
        <ItemRef ItemOID="IT.AE.USUBJID" Mandatory="Yes"/>
        <ItemRef ItemOID="IT.AE.AESEQ" Mandatory="Yes"/>
        <ItemRef ItemOID="IT.AE.AETERM" Mandatory="Yes"/>
        <ItemRef ItemOID="IT.AE.AEDECOD" Mandatory="No"/>
        <ItemRef ItemOID="IT.AE.AELLTCD" Mandatory="No"/>
        <ItemRef ItemOID="IT.AE.AESER" Mandatory="No"/>
        <ItemRef ItemOID="IT.AE.AEREL" Mandatory="No"/>
        <ItemRef ItemOID="IT.AE.AESTDTC" Mandatory="No"/>
      </ItemGroupDef>

      <ItemGroupDef OID="IG.LB" Name="LB" Repeating="Yes" IsReferenceData="No" SASDatasetName="LB"
                    def:Structure="One record per subject per lab test per visit"
                    def:StandardOID="STD.1" def:ArchiveLocationID="LF.LB">
        <Description>
          <TranslatedText>Laboratory Test Results</TranslatedText>
        </Description>
        <ItemRef ItemOID="IT.LB.STUDYID" Mandatory="Yes"/>
        <ItemRef ItemOID="IT.LB.DOMAIN" Mandatory="Yes"/>
        <ItemRef ItemOID="IT.LB.USUBJID" Mandatory="Yes"/>
        <ItemRef ItemOID="IT.LB.LBSEQ" Mandatory="Yes"/>
        <ItemRef ItemOID="IT.LB.LBTESTCD" Mandatory="Yes"/>
        <ItemRef ItemOID="IT.LB.LBTEST" Mandatory="Yes"/>
        <ItemRef ItemOID="IT.LB.LBDTC" Mandatory="No"/>
        <ItemRef ItemOID="IT.LB.LBORRES" Mandatory="No"/>
        <ItemRef ItemOID="IT.LB.LBORRESU" Mandatory="No"/>
        <ItemRef ItemOID="IT.LB.LBSTRES" Mandatory="No"/>
        <ItemRef ItemOID="IT.LB.LBSTRESU" Mandatory="No"/>
        <ItemRef ItemOID="IT.LB.LBSTNRLO" Mandatory="No"/>
        <ItemRef ItemOID="IT.LB.LBSTNRHI" Mandatory="No"/>
        <ItemRef ItemOID="IT.LB.LBNRIND" Mandatory="No"/>
      </ItemGroupDef>

      <ItemDef OID="IT.AE.STUDYID" Name="STUDYID" DataType="text" Length="8">
        <Description><TranslatedText>Study Identifier</TranslatedText></Description>
      </ItemDef>
      <ItemDef OID="IT.AE.DOMAIN" Name="DOMAIN" DataType="text" Length="2">
        <Description><TranslatedText>Domain Abbreviation</TranslatedText></Description>
      </ItemDef>
      <ItemDef OID="IT.AE.USUBJID" Name="USUBJID" DataType="text" Length="50">
        <Description><TranslatedText>Unique Subject Identifier</TranslatedText></Description>
      </ItemDef>
      <ItemDef OID="IT.AE.AESEQ" Name="AESEQ" DataType="integer" Length="8">
        <Description><TranslatedText>Sequence Number</TranslatedText></Description>
      </ItemDef>
      <ItemDef OID="IT.AE.AETERM" Name="AETERM" DataType="text" Length="200">
        <Description><TranslatedText>Reported Term for AE</TranslatedText></Description>
      </ItemDef>
      <ItemDef OID="IT.AE.AEDECOD" Name="AEDECOD" DataType="text" Length="200">
        <Description><TranslatedText>Dictionary-Derived Term</TranslatedText></Description>
      </ItemDef>
      <ItemDef OID="IT.AE.AELLTCD" Name="AELLTCD" DataType="integer" Length="8">
        <Description><TranslatedText>Lowest Level Term Code</TranslatedText></Description>
      </ItemDef>
      <ItemDef OID="IT.AE.AESER" Name="AESER" DataType="text" Length="1">
        <Description><TranslatedText>Serious Event</TranslatedText></Description>
      </ItemDef>
      <ItemDef OID="IT.AE.AEREL" Name="AEREL" DataType="text" Length="16">
        <Description><TranslatedText>Causality</TranslatedText></Description>
      </ItemDef>
      <ItemDef OID="IT.AE.AESTDTC" Name="AESTDTC" DataType="text" Length="20">
        <Description><TranslatedText>Start Date/Time</TranslatedText></Description>
      </ItemDef>
      <ItemDef OID="IT.LB.STUDYID" Name="STUDYID" DataType="text" Length="8">
        <Description><TranslatedText>Study Identifier</TranslatedText></Description>
      </ItemDef>
      <ItemDef OID="IT.LB.DOMAIN" Name="DOMAIN" DataType="text" Length="2">
        <Description><TranslatedText>Domain Abbreviation</TranslatedText></Description>
      </ItemDef>
      <ItemDef OID="IT.LB.USUBJID" Name="USUBJID" DataType="text" Length="50">
        <Description><TranslatedText>Unique Subject Identifier</TranslatedText></Description>
      </ItemDef>
      <ItemDef OID="IT.LB.LBSEQ" Name="LBSEQ" DataType="integer" Length="8">
        <Description><TranslatedText>Sequence Number</TranslatedText></Description>
      </ItemDef>
      <ItemDef OID="IT.LB.LBTESTCD" Name="LBTESTCD" DataType="text" Length="8">
        <Description><TranslatedText>Lab Test Short Name</TranslatedText></Description>
      </ItemDef>
      <ItemDef OID="IT.LB.LBTEST" Name="LBTEST" DataType="text" Length="40">
        <Description><TranslatedText>Lab Test Name</TranslatedText></Description>
      </ItemDef>
      <ItemDef OID="IT.LB.LBDTC" Name="LBDTC" DataType="text" Length="20">
        <Description><TranslatedText>Date/Time of Specimen Collection</TranslatedText></Description>
      </ItemDef>
      <ItemDef OID="IT.LB.LBORRES" Name="LBORRES" DataType="text" Length="200">
        <Description><TranslatedText>Result or Finding in Original Units</TranslatedText></Description>
      </ItemDef>
      <ItemDef OID="IT.LB.LBORRESU" Name="LBORRESU" DataType="text" Length="40">
        <Description><TranslatedText>Original Units</TranslatedText></Description>
      </ItemDef>
      <ItemDef OID="IT.LB.LBSTRES" Name="LBSTRES" DataType="float" Length="8">
        <Description><TranslatedText>Numeric Result/Finding in Standard Units</TranslatedText></Description>
      </ItemDef>
      <ItemDef OID="IT.LB.LBSTRESU" Name="LBSTRESU" DataType="text" Length="40">
        <Description><TranslatedText>Standard Units</TranslatedText></Description>
      </ItemDef>
      <ItemDef OID="IT.LB.LBSTNRLO" Name="LBSTNRLO" DataType="float" Length="8">
        <Description><TranslatedText>Reference Range Lower Limit</TranslatedText></Description>
      </ItemDef>
      <ItemDef OID="IT.LB.LBSTNRHI" Name="LBSTNRHI" DataType="float" Length="8">
        <Description><TranslatedText>Reference Range Upper Limit</TranslatedText></Description>
      </ItemDef>
      <ItemDef OID="IT.LB.LBNRIND" Name="LBNRIND" DataType="text" Length="10">
        <Description><TranslatedText>Reference Range Indicator</TranslatedText></Description>
      </ItemDef>

      <def:leaf ID="LF.AE" xlink:href="https://github.com/cdisc-org/DataExchange-RWD-Lineage/blob/main/examples/example2/data/sdtm/AE.csv">
        <def:title>AE.xpt</def:title>
      </def:leaf>
      <def:leaf ID="LF.LB" xlink:href="https://github.com/cdisc-org/DataExchange-RWD-Lineage/blob/main/examples/example2/data/sdtm/LB.csv">
        <def:title>LB.xpt</def:title>
      </def:leaf>
      <def:leaf ID="LF.LABRESULTS" xlink:href="https://github.com/cdisc-org/DataExchange-RWD-Lineage/blob/main/examples/example2/data/source/LabResults.csv">
        <def:title>LabResults.csv</def:title>
      </def:leaf>

    </MetaDataVersion>
  </Study>
</ODM>
